experiment,native_language,speech_version,speech_recording,site,p_n_unique,participant_n,trial_type,trial_number,block_ws,block_cswl,condition_cswl,target_audio_ws,distractor_audio_ws,distractor_audio_type_ws,target_audio_cswl,target_visual,distractor_visual_1,distractor_visual_2,distractor_visual_3,freq_pair,key_pressed,is_correct,rt,chance_level,sona_gift_card,id_quest,age,gender,education,major,born_native,other_native,live_abroad,months_abroad,age_abroad,native_speaker,alternative_native_language,speak_foreign_language,foreign_1,level_1,age_acquisition_1,foreign_2,level_2,age_acquisition_2,foreign_3,level_3,age_acquisition_3,foreign_4,level_4,age_acquisition_4,normal_hearing,hearing_impairment,normal_vision,vision_impairment
1,brazilian-portuguese,L_balanced,mbrola,lab,289,1,warm up ws,NA,NA,NA,NA,audio/cabo.wav,audio/guvi.wav,NA,NA,NA,NA,NA,NA,NA,2,1,4.449209386,NA,NA,328,24,male,undergraduate,math,no,Japan,yes,24,10,yes,NA,yes,Japanese,3,10,English,3,16,NA,NA,NA,NA,NA,NA,yes,NA,yes,NA
1,brazilian-portuguese,L_balanced,mbrola,lab,289,1,warm up ws,NA,NA,NA,NA,audio/pato.wav,audio/tibo.wav,NA,NA,NA,NA,NA,NA,NA,2,0,3.082781778,NA,NA,328,24,male,undergraduate,math,no,Japan,yes,24,10,yes,NA,yes,Japanese,3,10,English,3,16,NA,NA,NA,NA,NA,NA,yes,NA,yes,NA
1,brazilian-portuguese,L_balanced,mbrola,lab,289,1,warm up ws,NA,NA,NA,NA,audio/bola.wav,audio/fabu.wav,NA,NA,NA,NA,NA,NA,NA,1,1,0.700283038,NA,NA,328,24,male,undergraduate,math,no,Japan,yes,24,10,yes,NA,yes,Japanese,3,10,English,3,16,NA,NA,NA,NA,NA,NA,yes,NA,yes,NA
1,brazilian-portuguese,L_balanced,mbrola,lab,289,1,warm up ws,NA,NA,NA,NA,audio/tela.wav,audio/bafi.wav,NA,NA,NA,NA,NA,NA,NA,1,0,3.832584495,NA,NA,328,24,male,undergraduate,math,no,Japan,yes,24,10,yes,NA,yes,Japanese,3,10,English,3,16,NA,NA,NA,NA,NA,NA,yes,NA,yes,NA
1,brazilian-portuguese,L_balanced,mbrola,lab,289,1,test ws,5,1,NA,NA,audio/pp3.wav,audio/pp4.wav,part_word,NA,NA,NA,NA,NA,NA,2,0,5.715274816,0.5,NA,328,24,male,undergraduate,math,no,Japan,yes,24,10,yes,NA,yes,Japanese,3,10,English,3,16,NA,NA,NA,NA,NA,NA,yes,NA,yes,NA
1,brazilian-portuguese,L_balanced,mbrola,lab,289,1,test ws,6,1,NA,NA,audio/pp2.wav,audio/pp6.wav,part_word,NA,NA,NA,NA,NA,NA,1,1,2.083157527,0.5,NA,328,24,male,undergraduate,math,no,Japan,yes,24,10,yes,NA,yes,Japanese,3,10,English,3,16,NA,NA,NA,NA,NA,NA,yes,NA,yes,NA
1,brazilian-portuguese,L_balanced,mbrola,lab,289,1,test ws,7,1,NA,NA,audio/pp1.wav,audio/pp5.wav,part_word,NA,NA,NA,NA,NA,NA,1,0,4.166123474,0.5,NA,328,24,male,undergraduate,math,no,Japan,yes,24,10,yes,NA,yes,Japanese,3,10,English,3,16,NA,NA,NA,NA,NA,NA,yes,NA,yes,NA
1,brazilian-portuguese,L_balanced,mbrola,lab,289,1,test ws,8,3,NA,NA,audio/pp1.wav,audio/pp4.wav,part_word,NA,NA,NA,NA,NA,NA,1,0,1.866550198,0.5,NA,328,24,male,undergraduate,math,no,Japan,yes,24,10,yes,NA,yes,Japanese,3,10,English,3,16,NA,NA,NA,NA,NA,NA,yes,NA,yes,NA
1,brazilian-portuguese,L_balanced,mbrola,lab,289,1,test ws,9,3,NA,NA,audio/pp3.wav,audio/pp6.wav,part_word,NA,NA,NA,NA,NA,NA,2,1,2.215989823,0.5,NA,328,24,male,undergraduate,math,no,Japan,yes,24,10,yes,NA,yes,Japanese,3,10,English,3,16,NA,NA,NA,NA,NA,NA,yes,NA,yes,NA
1,brazilian-portuguese,L_balanced,mbrola,lab,289,1,test ws,10,3,NA,NA,audio/pp2.wav,audio/pp5.wav,part_word,NA,NA,NA,NA,NA,NA,2,1,3.299418757,0.5,NA,328,24,male,undergraduate,math,no,Japan,yes,24,10,yes,NA,yes,Japanese,3,10,English,3,16,NA,NA,NA,NA,NA,NA,yes,NA,yes,NA
1,brazilian-portuguese,L_balanced,mbrola,lab,289,1,test ws,11,5,NA,NA,audio/pp1.wav,audio/pp6.wav,part_word,NA,NA,NA,NA,NA,NA,1,0,3.815889586,0.5,NA,328,24,male,undergraduate,math,no,Japan,yes,24,10,yes,NA,yes,Japanese,3,10,English,3,16,NA,NA,NA,NA,NA,NA,yes,NA,yes,NA
1,brazilian-portuguese,L_balanced,mbrola,lab,289,1,test ws,12,5,NA,NA,audio/pp2.wav,audio/pp5.wav,part_word,NA,NA,NA,NA,NA,NA,1,1,1.932946104,0.5,NA,328,24,male,undergraduate,math,no,Japan,yes,24,10,yes,NA,yes,Japanese,3,10,English,3,16,NA,NA,NA,NA,NA,NA,yes,NA,yes,NA
1,brazilian-portuguese,L_balanced,mbrola,lab,289,1,test ws,13,5,NA,NA,audio/pp3.wav,audio/pp4.wav,part_word,NA,NA,NA,NA,NA,NA,1,1,1.966488732,0.5,NA,328,24,male,undergraduate,math,no,Japan,yes,24,10,yes,NA,yes,Japanese,3,10,English,3,16,NA,NA,NA,NA,NA,NA,yes,NA,yes,NA
1,brazilian-portuguese,L_balanced,mbrola,lab,289,1,test ws,14,2,NA,NA,audio/pp3.wav,audio/pp4.wav,part_word,NA,NA,NA,NA,NA,NA,1,1,1.350007526,0.5,NA,328,24,male,undergraduate,math,no,Japan,yes,24,10,yes,NA,yes,Japanese,3,10,English,3,16,NA,NA,NA,NA,NA,NA,yes,NA,yes,NA
1,brazilian-portuguese,L_balanced,mbrola,lab,289,1,test ws,15,2,NA,NA,audio/pp2.wav,audio/pp5.wav,part_word,NA,NA,NA,NA,NA,NA,2,0,3.166125184,0.5,NA,328,24,male,undergraduate,math,no,Japan,yes,24,10,yes,NA,yes,Japanese,3,10,English,3,16,NA,NA,NA,NA,NA,NA,yes,NA,yes,NA
1,brazilian-portuguese,L_balanced,mbrola,lab,289,1,test ws,16,2,NA,NA,audio/pp1.wav,audio/pp6.wav,part_word,NA,NA,NA,NA,NA,NA,1,0,1.483231537,0.5,NA,328,24,male,undergraduate,math,no,Japan,yes,24,10,yes,NA,yes,Japanese,3,10,English,3,16,NA,NA,NA,NA,NA,NA,yes,NA,yes,NA
1,brazilian-portuguese,L_balanced,mbrola,lab,289,1,test ws,17,6,NA,NA,audio/pp3.wav,audio/pp5.wav,part_word,NA,NA,NA,NA,NA,NA,1,1,1.899891551,0.5,NA,328,24,male,undergraduate,math,no,Japan,yes,24,10,yes,NA,yes,Japanese,3,10,English,3,16,NA,NA,NA,NA,NA,NA,yes,NA,yes,NA
1,brazilian-portuguese,L_balanced,mbrola,lab,289,1,test ws,18,6,NA,NA,audio/pp2.wav,audio/pp6.wav,part_word,NA,NA,NA,NA,NA,NA,2,1,4.982176131,0.5,NA,328,24,male,undergraduate,math,no,Japan,yes,24,10,yes,NA,yes,Japanese,3,10,English,3,16,NA,NA,NA,NA,NA,NA,yes,NA,yes,NA
1,brazilian-portuguese,L_balanced,mbrola,lab,289,1,test ws,19,6,NA,NA,audio/pp1.wav,audio/pp4.wav,part_word,NA,NA,NA,NA,NA,NA,2,1,2.799638847,0.5,NA,328,24,male,undergraduate,math,no,Japan,yes,24,10,yes,NA,yes,Japanese,3,10,English,3,16,NA,NA,NA,NA,NA,NA,yes,NA,yes,NA
1,brazilian-portuguese,L_balanced,mbrola,lab,289,1,test ws,20,4,NA,NA,audio/pp2.wav,audio/pp4.wav,part_word,NA,NA,NA,NA,NA,NA,1,1,2.249710348,0.5,NA,328,24,male,undergraduate,math,no,Japan,yes,24,10,yes,NA,yes,Japanese,3,10,English,3,16,NA,NA,NA,NA,NA,NA,yes,NA,yes,NA
1,brazilian-portuguese,L_balanced,mbrola,lab,289,1,test ws,21,4,NA,NA,audio/pp3.wav,audio/pp6.wav,part_word,NA,NA,NA,NA,NA,NA,2,1,5.248815733,0.5,NA,328,24,male,undergraduate,math,no,Japan,yes,24,10,yes,NA,yes,Japanese,3,10,English,3,16,NA,NA,NA,NA,NA,NA,yes,NA,yes,NA
1,brazilian-portuguese,L_balanced,mbrola,lab,289,1,test ws,22,4,NA,NA,audio/pp1.wav,audio/pp5.wav,part_word,NA,NA,NA,NA,NA,NA,1,0,2.033173721,0.5,NA,328,24,male,undergraduate,math,no,Japan,yes,24,10,yes,NA,yes,Japanese,3,10,English,3,16,NA,NA,NA,NA,NA,NA,yes,NA,yes,NA
1,brazilian-portuguese,L_balanced,mbrola,lab,289,1,self evaluation ws,NA,NA,NA,NA,NA,NA,NA,NA,NA,NA,NA,NA,NA,2,NA,6.831571283,NA,NA,328,24,male,undergraduate,math,no,Japan,yes,24,10,yes,NA,yes,Japanese,3,10,English,3,16,NA,NA,NA,NA,NA,NA,yes,NA,yes,NA
1,brazilian-portuguese,L_balanced,mbrola,lab,289,1,warm up cswl,NA,NA,NA,NA,NA,NA,NA,audio/pato.wav,img/pato.jpg,img/bola.jpg,img/gato.jpg,img/casa.jpg,NA,4,1,3.782541389,NA,NA,328,24,male,undergraduate,math,no,Japan,yes,24,10,yes,NA,yes,Japanese,3,10,English,3,16,NA,NA,NA,NA,NA,NA,yes,NA,yes,NA
1,brazilian-portuguese,L_balanced,mbrola,lab,289,1,warm up cswl,NA,NA,NA,NA,NA,NA,NA,audio/bola.wav,img/bola.jpg,img/casa.jpg,img/pato.jpg,img/gato.jpg,NA,2,1,2.583278976,NA,NA,328,24,male,undergraduate,math,no,Japan,yes,24,10,yes,NA,yes,Japanese,3,10,English,3,16,NA,NA,NA,NA,NA,NA,yes,NA,yes,NA
1,brazilian-portuguese,L_balanced,mbrola,lab,289,1,test cswl,26,NA,NA,NA,NA,NA,NA,audio/pp3.wav,img/06.jpg,img/01.jpg,img/02.jpg,img/03.jpg,high,2,1,9.147456877,0.25,NA,328,24,male,undergraduate,math,no,Japan,yes,24,10,yes,NA,yes,Japanese,3,10,English,3,16,NA,NA,NA,NA,NA,NA,yes,NA,yes,NA
1,brazilian-portuguese,L_balanced,mbrola,lab,289,1,test cswl,27,NA,NA,NA,NA,NA,NA,audio/p4.wav,img/01.jpg,img/03.jpg,img/05.jpg,img/04.jpg,low,1,1,6.848176674,0.25,NA,328,24,male,undergraduate,math,no,Japan,yes,24,10,yes,NA,yes,Japanese,3,10,English,3,16,NA,NA,NA,NA,NA,NA,yes,NA,yes,NA
1,brazilian-portuguese,L_balanced,mbrola,lab,289,1,test cswl,28,NA,NA,NA,NA,NA,NA,audio/pp3.wav,img/06.jpg,img/04.jpg,img/03.jpg,img/02.jpg,high,2,1,2.999544425,0.25,NA,328,24,male,undergraduate,math,no,Japan,yes,24,10,yes,NA,yes,Japanese,3,10,English,3,16,NA,NA,NA,NA,NA,NA,yes,NA,yes,NA
1,brazilian-portuguese,L_balanced,mbrola,lab,289,1,test cswl,29,NA,NA,NA,NA,NA,NA,audio/p5.wav,img/02.jpg,img/05.jpg,img/04.jpg,img/06.jpg,low,3,1,4.415659916,0.25,NA,328,24,male,undergraduate,math,no,Japan,yes,24,10,yes,NA,yes,Japanese,3,10,English,3,16,NA,NA,NA,NA,NA,NA,yes,NA,yes,NA
1,brazilian-portuguese,L_balanced,mbrola,lab,289,1,test cswl,30,NA,NA,NA,NA,NA,NA,audio/p5.wav,img/02.jpg,img/03.jpg,img/04.jpg,img/05.jpg,low,3,1,2.649607601,0.25,NA,328,24,male,undergraduate,math,no,Japan,yes,24,10,yes,NA,yes,Japanese,3,10,English,3,16,NA,NA,NA,NA,NA,NA,yes,NA,yes,NA
1,brazilian-portuguese,L_balanced,mbrola,lab,289,1,test cswl,31,NA,NA,NA,NA,NA,NA,audio/p4.wav,img/01.jpg,img/05.jpg,img/06.jpg,img/03.jpg,low,1,0,6.29832686,0.25,NA,328,24,male,undergraduate,math,no,Japan,yes,24,10,yes,NA,yes,Japanese,3,10,English,3,16,NA,NA,NA,NA,NA,NA,yes,NA,yes,NA
1,brazilian-portuguese,L_balanced,mbrola,lab,289,1,test cswl,32,NA,NA,NA,NA,NA,NA,audio/pp2.wav,img/05.jpg,img/01.jpg,img/04.jpg,img/02.jpg,high,1,0,5.315390107,0.25,NA,328,24,male,undergraduate,math,no,Japan,yes,24,10,yes,NA,yes,Japanese,3,10,English,3,16,NA,NA,NA,NA,NA,NA,yes,NA,yes,NA
1,brazilian-portuguese,L_balanced,mbrola,lab,289,1,test cswl,33,NA,NA,NA,NA,NA,NA,audio/p6.wav,img/03.jpg,img/02.jpg,img/06.jpg,img/01.jpg,low,3,1,3.766079684,0.25,NA,328,24,male,undergraduate,math,no,Japan,yes,24,10,yes,NA,yes,Japanese,3,10,English,3,16,NA,NA,NA,NA,NA,NA,yes,NA,yes,NA
1,brazilian-portuguese,L_balanced,mbrola,lab,289,1,test cswl,34,NA,NA,NA,NA,NA,NA,audio/pp1.wav,img/04.jpg,img/02.jpg,img/06.jpg,img/01.jpg,high,3,0,3.382988526,0.25,NA,328,24,male,undergraduate,math,no,Japan,yes,24,10,yes,NA,yes,Japanese,3,10,English,3,16,NA,NA,NA,NA,NA,NA,yes,NA,yes,NA
1,brazilian-portuguese,L_balanced,mbrola,lab,289,1,test cswl,35,NA,NA,NA,NA,NA,NA,audio/p6.wav,img/03.jpg,img/01.jpg,img/05.jpg,img/06.jpg,low,2,0,6.864951409,0.25,NA,328,24,male,undergraduate,math,no,Japan,yes,24,10,yes,NA,yes,Japanese,3,10,English,3,16,NA,NA,NA,NA,NA,NA,yes,NA,yes,NA
1,brazilian-portuguese,L_balanced,mbrola,lab,289,1,test cswl,36,NA,NA,NA,NA,NA,NA,audio/pp1.wav,img/04.jpg,img/01.jpg,img/06.jpg,img/05.jpg,high,3,0,3.066098842,0.25,NA,328,24,male,undergraduate,math,no,Japan,yes,24,10,yes,NA,yes,Japanese,3,10,English,3,16,NA,NA,NA,NA,NA,NA,yes,NA,yes,NA
1,brazilian-portuguese,L_balanced,mbrola,lab,289,1,test cswl,37,NA,NA,NA,NA,NA,NA,audio/pp2.wav,img/05.jpg,img/02.jpg,img/03.jpg,img/04.jpg,high,4,0,3.949289782,0.25,NA,328,24,male,undergraduate,math,no,Japan,yes,24,10,yes,NA,yes,Japanese,3,10,English,3,16,NA,NA,NA,NA,NA,NA,yes,NA,yes,NA
1,brazilian-portuguese,L_balanced,mbrola,lab,289,1,self evaluation cswl,NA,NA,NA,NA,NA,NA,NA,NA,NA,NA,NA,NA,NA,1,NA,4.365706329,NA,NA,328,24,male,undergraduate,math,no,Japan,yes,24,10,yes,NA,yes,Japanese,3,10,English,3,16,NA,NA,NA,NA,NA,NA,yes,NA,yes,NA
1,brazilian-portuguese,L_balanced,mbrola,lab,291,2,warm up ws,NA,NA,NA,NA,audio/cabo.wav,audio/guvi.wav,NA,NA,NA,NA,NA,NA,NA,2,1,3.616042736,NA,NA,329,19,female,undergraduate,occupational therapy,yes,NA,no,NA,NA,yes,NA,yes,English,4,12,NA,NA,NA,NA,NA,NA,NA,NA,NA,yes,NA,yes,NA
1,brazilian-portuguese,L_balanced,mbrola,lab,291,2,warm up ws,NA,NA,NA,NA,audio/pato.wav,audio/tibo.wav,NA,NA,NA,NA,NA,NA,NA,1,1,2.566147307,NA,NA,329,19,female,undergraduate,occupational therapy,yes,NA,no,NA,NA,yes,NA,yes,English,4,12,NA,NA,NA,NA,NA,NA,NA,NA,NA,yes,NA,yes,NA
1,brazilian-portuguese,L_balanced,mbrola,lab,291,2,warm up ws,NA,NA,NA,NA,audio/tela.wav,audio/bafi.wav,NA,NA,NA,NA,NA,NA,NA,2,1,2.533083062,NA,NA,329,19,female,undergraduate,occupational therapy,yes,NA,no,NA,NA,yes,NA,yes,English,4,12,NA,NA,NA,NA,NA,NA,NA,NA,NA,yes,NA,yes,NA
1,brazilian-portuguese,L_balanced,mbrola,lab,291,2,warm up ws,NA,NA,NA,NA,audio/bola.wav,audio/fabu.wav,NA,NA,NA,NA,NA,NA,NA,1,1,0.884610692,NA,NA,329,19,female,undergraduate,occupational therapy,yes,NA,no,NA,NA,yes,NA,yes,English,4,12,NA,NA,NA,NA,NA,NA,NA,NA,NA,yes,NA,yes,NA
1,brazilian-portuguese,L_balanced,mbrola,lab,291,2,test ws,5,1,NA,NA,audio/pp2.wav,audio/pp6.wav,part_word,NA,NA,NA,NA,NA,NA,1,1,0.384041651,0.5,NA,329,19,female,undergraduate,occupational therapy,yes,NA,no,NA,NA,yes,NA,yes,English,4,12,NA,NA,NA,NA,NA,NA,NA,NA,NA,yes,NA,yes,NA
1,brazilian-portuguese,L_balanced,mbrola,lab,291,2,test ws,6,1,NA,NA,audio/pp3.wav,audio/pp4.wav,part_word,NA,NA,NA,NA,NA,NA,1,1,0.283819166,0.5,NA,329,19,female,undergraduate,occupational therapy,yes,NA,no,NA,NA,yes,NA,yes,English,4,12,NA,NA,NA,NA,NA,NA,NA,NA,NA,yes,NA,yes,NA
1,brazilian-portuguese,L_balanced,mbrola,lab,291,2,test ws,7,1,NA,NA,audio/pp1.wav,audio/pp5.wav,part_word,NA,NA,NA,NA,NA,NA,2,1,0.267457812,0.5,NA,329,19,female,undergraduate,occupational therapy,yes,NA,no,NA,NA,yes,NA,yes,English,4,12,NA,NA,NA,NA,NA,NA,NA,NA,NA,yes,NA,yes,NA
1,brazilian-portuguese,L_balanced,mbrola,lab,291,2,test ws,8,2,NA,NA,audio/pp3.wav,audio/pp4.wav,part_word,NA,NA,NA,NA,NA,NA,1,1,0.333702621,0.5,NA,329,19,female,undergraduate,occupational therapy,yes,NA,no,NA,NA,yes,NA,yes,English,4,12,NA,NA,NA,NA,NA,NA,NA,NA,NA,yes,NA,yes,NA
1,brazilian-portuguese,L_balanced,mbrola,lab,291,2,test ws,9,2,NA,NA,audio/pp1.wav,audio/pp6.wav,part_word,NA,NA,NA,NA,NA,NA,2,1,0.40032831,0.5,NA,329,19,female,undergraduate,occupational therapy,yes,NA,no,NA,NA,yes,NA,yes,English,4,12,NA,NA,NA,NA,NA,NA,NA,NA,NA,yes,NA,yes,NA
1,brazilian-portuguese,L_balanced,mbrola,lab,291,2,test ws,10,2,NA,NA,audio/pp2.wav,audio/pp5.wav,part_word,NA,NA,NA,NA,NA,NA,1,1,0.983533163,0.5,NA,329,19,female,undergraduate,occupational therapy,yes,NA,no,NA,NA,yes,NA,yes,English,4,12,NA,NA,NA,NA,NA,NA,NA,NA,NA,yes,NA,yes,NA
1,brazilian-portuguese,L_balanced,mbrola,lab,291,2,test ws,11,4,NA,NA,audio/pp3.wav,audio/pp6.wav,part_word,NA,NA,NA,NA,NA,NA,2,1,0.617164853,0.5,NA,329,19,female,undergraduate,occupational therapy,yes,NA,no,NA,NA,yes,NA,yes,English,4,12,NA,NA,NA,NA,NA,NA,NA,NA,NA,yes,NA,yes,NA
1,brazilian-portuguese,L_balanced,mbrola,lab,291,2,test ws,12,4,NA,NA,audio/pp1.wav,audio/pp5.wav,part_word,NA,NA,NA,NA,NA,NA,2,1,0.46704922,0.5,NA,329,19,female,undergraduate,occupational therapy,yes,NA,no,NA,NA,yes,NA,yes,English,4,12,NA,NA,NA,NA,NA,NA,NA,NA,NA,yes,NA,yes,NA
1,brazilian-portuguese,L_balanced,mbrola,lab,291,2,test ws,13,4,NA,NA,audio/pp2.wav,audio/pp4.wav,part_word,NA,NA,NA,NA,NA,NA,1,1,0.866835858,0.5,NA,329,19,female,undergraduate,occupational therapy,yes,NA,no,NA,NA,yes,NA,yes,English,4,12,NA,NA,NA,NA,NA,NA,NA,NA,NA,yes,NA,yes,NA
1,brazilian-portuguese,L_balanced,mbrola,lab,291,2,test ws,14,3,NA,NA,audio/pp3.wav,audio/pp6.wav,part_word,NA,NA,NA,NA,NA,NA,2,1,0.616933359,0.5,NA,329,19,female,undergraduate,occupational therapy,yes,NA,no,NA,NA,yes,NA,yes,English,4,12,NA,NA,NA,NA,NA,NA,NA,NA,NA,yes,NA,yes,NA
1,brazilian-portuguese,L_balanced,mbrola,lab,291,2,test ws,15,3,NA,NA,audio/pp2.wav,audio/pp5.wav,part_word,NA,NA,NA,NA,NA,NA,2,1,1.683156501,0.5,NA,329,19,female,undergraduate,occupational therapy,yes,NA,no,NA,NA,yes,NA,yes,English,4,12,NA,NA,NA,NA,NA,NA,NA,NA,NA,yes,NA,yes,NA
1,brazilian-portuguese,L_balanced,mbrola,lab,291,2,test ws,16,3,NA,NA,audio/pp1.wav,audio/pp4.wav,part_word,NA,NA,NA,NA,NA,NA,2,1,0.333737972,0.5,NA,329,19,female,undergraduate,occupational therapy,yes,NA,no,NA,NA,yes,NA,yes,English,4,12,NA,NA,NA,NA,NA,NA,NA,NA,NA,yes,NA,yes,NA
1,brazilian-portuguese,L_balanced,mbrola,lab,291,2,test ws,17,6,NA,NA,audio/pp1.wav,audio/pp4.wav,part_word,NA,NA,NA,NA,NA,NA,2,1,0.566955254,0.5,NA,329,19,female,undergraduate,occupational therapy,yes,NA,no,NA,NA,yes,NA,yes,English,4,12,NA,NA,NA,NA,NA,NA,NA,NA,NA,yes,NA,yes,NA
1,brazilian-portuguese,L_balanced,mbrola,lab,291,2,test ws,18,6,NA,NA,audio/pp3.wav,audio/pp5.wav,part_word,NA,NA,NA,NA,NA,NA,1,1,0.283578549,0.5,NA,329,19,female,undergraduate,occupational therapy,yes,NA,no,NA,NA,yes,NA,yes,English,4,12,NA,NA,NA,NA,NA,NA,NA,NA,NA,yes,NA,yes,NA
1,brazilian-portuguese,L_balanced,mbrola,lab,291,2,test ws,19,6,NA,NA,audio/pp2.wav,audio/pp6.wav,part_word,NA,NA,NA,NA,NA,NA,2,1,0.517007369,0.5,NA,329,19,female,undergraduate,occupational therapy,yes,NA,no,NA,NA,yes,NA,yes,English,4,12,NA,NA,NA,NA,NA,NA,NA,NA,NA,yes,NA,yes,NA
1,brazilian-portuguese,L_balanced,mbrola,lab,291,2,test ws,20,5,NA,NA,audio/pp2.wav,audio/pp5.wav,part_word,NA,NA,NA,NA,NA,NA,1,1,0.21711137,0.5,NA,329,19,female,undergraduate,occupational therapy,yes,NA,no,NA,NA,yes,NA,yes,English,4,12,NA,NA,NA,NA,NA,NA,NA,NA,NA,yes,NA,yes,NA
1,brazilian-portuguese,L_balanced,mbrola,lab,291,2,test ws,21,5,NA,NA,audio/pp3.wav,audio/pp4.wav,part_word,NA,NA,NA,NA,NA,NA,1,1,0.450589795,0.5,NA,329,19,female,undergraduate,occupational therapy,yes,NA,no,NA,NA,yes,NA,yes,English,4,12,NA,NA,NA,NA,NA,NA,NA,NA,NA,yes,NA,yes,NA
1,brazilian-portuguese,L_balanced,mbrola,lab,291,2,test ws,22,5,NA,NA,audio/pp1.wav,audio/pp6.wav,part_word,NA,NA,NA,NA,NA,NA,2,1,1.033457671,0.5,NA,329,19,female,undergraduate,occupational therapy,yes,NA,no,NA,NA,yes,NA,yes,English,4,12,NA,NA,NA,NA,NA,NA,NA,NA,NA,yes,NA,yes,NA
1,brazilian-portuguese,L_balanced,mbrola,lab,291,2,self evaluation ws,NA,NA,NA,NA,NA,NA,NA,NA,NA,NA,NA,NA,NA,4,NA,4.732226307,NA,NA,329,19,female,undergraduate,occupational therapy,yes,NA,no,NA,NA,yes,NA,yes,English,4,12,NA,NA,NA,NA,NA,NA,NA,NA,NA,yes,NA,yes,NA
1,brazilian-portuguese,L_balanced,mbrola,lab,291,2,warm up cswl,NA,NA,NA,NA,NA,NA,NA,audio/bola.wav,img/bola.jpg,img/casa.jpg,img/pato.jpg,img/gato.jpg,NA,2,1,1.733255485,NA,NA,329,19,female,undergraduate,occupational therapy,yes,NA,no,NA,NA,yes,NA,yes,English,4,12,NA,NA,NA,NA,NA,NA,NA,NA,NA,yes,NA,yes,NA
1,brazilian-portuguese,L_balanced,mbrola,lab,291,2,warm up cswl,NA,NA,NA,NA,NA,NA,NA,audio/pato.wav,img/pato.jpg,img/bola.jpg,img/gato.jpg,img/casa.jpg,NA,4,1,1.699925534,NA,NA,329,19,female,undergraduate,occupational therapy,yes,NA,no,NA,NA,yes,NA,yes,English,4,12,NA,NA,NA,NA,NA,NA,NA,NA,NA,yes,NA,yes,NA
1,brazilian-portuguese,L_balanced,mbrola,lab,291,2,test cswl,26,NA,NA,NA,NA,NA,NA,audio/p6.wav,img/03.jpg,img/01.jpg,img/05.jpg,img/06.jpg,low,1,1,1.383451513,0.25,NA,329,19,female,undergraduate,occupational therapy,yes,NA,no,NA,NA,yes,NA,yes,English,4,12,NA,NA,NA,NA,NA,NA,NA,NA,NA,yes,NA,yes,NA
1,brazilian-portuguese,L_balanced,mbrola,lab,291,2,test cswl,27,NA,NA,NA,NA,NA,NA,audio/pp1.wav,img/04.jpg,img/01.jpg,img/06.jpg,img/05.jpg,high,2,1,1.816777928,0.25,NA,329,19,female,undergraduate,occupational therapy,yes,NA,no,NA,NA,yes,NA,yes,English,4,12,NA,NA,NA,NA,NA,NA,NA,NA,NA,yes,NA,yes,NA
1,brazilian-portuguese,L_balanced,mbrola,lab,291,2,test cswl,28,NA,NA,NA,NA,NA,NA,audio/pp2.wav,img/05.jpg,img/01.jpg,img/04.jpg,img/02.jpg,high,4,1,5.015443932,0.25,NA,329,19,female,undergraduate,occupational therapy,yes,NA,no,NA,NA,yes,NA,yes,English,4,12,NA,NA,NA,NA,NA,NA,NA,NA,NA,yes,NA,yes,NA
1,brazilian-portuguese,L_balanced,mbrola,lab,291,2,test cswl,29,NA,NA,NA,NA,NA,NA,audio/p6.wav,img/03.jpg,img/02.jpg,img/06.jpg,img/01.jpg,low,3,1,2.18290049,0.25,NA,329,19,female,undergraduate,occupational therapy,yes,NA,no,NA,NA,yes,NA,yes,English,4,12,NA,NA,NA,NA,NA,NA,NA,NA,NA,yes,NA,yes,NA
1,brazilian-portuguese,L_balanced,mbrola,lab,291,2,test cswl,30,NA,NA,NA,NA,NA,NA,audio/p5.wav,img/02.jpg,img/05.jpg,img/04.jpg,img/06.jpg,low,3,1,2.033208502,0.25,NA,329,19,female,undergraduate,occupational therapy,yes,NA,no,NA,NA,yes,NA,yes,English,4,12,NA,NA,NA,NA,NA,NA,NA,NA,NA,yes,NA,yes,NA
1,brazilian-portuguese,L_balanced,mbrola,lab,291,2,test cswl,31,NA,NA,NA,NA,NA,NA,audio/pp1.wav,img/04.jpg,img/02.jpg,img/06.jpg,img/01.jpg,high,1,1,1.566516215,0.25,NA,329,19,female,undergraduate,occupational therapy,yes,NA,no,NA,NA,yes,NA,yes,English,4,12,NA,NA,NA,NA,NA,NA,NA,NA,NA,yes,NA,yes,NA
1,brazilian-portuguese,L_balanced,mbrola,lab,291,2,test cswl,32,NA,NA,NA,NA,NA,NA,audio/p4.wav,img/01.jpg,img/03.jpg,img/05.jpg,img/04.jpg,low,1,1,2.016540961,0.25,NA,329,19,female,undergraduate,occupational therapy,yes,NA,no,NA,NA,yes,NA,yes,English,4,12,NA,NA,NA,NA,NA,NA,NA,NA,NA,yes,NA,yes,NA
1,brazilian-portuguese,L_balanced,mbrola,lab,291,2,test cswl,33,NA,NA,NA,NA,NA,NA,audio/pp3.wav,img/06.jpg,img/01.jpg,img/02.jpg,img/03.jpg,high,2,1,1.816505951,0.25,NA,329,19,female,undergraduate,occupational therapy,yes,NA,no,NA,NA,yes,NA,yes,English,4,12,NA,NA,NA,NA,NA,NA,NA,NA,NA,yes,NA,yes,NA
1,brazilian-portuguese,L_balanced,mbrola,lab,291,2,test cswl,34,NA,NA,NA,NA,NA,NA,audio/p4.wav,img/01.jpg,img/05.jpg,img/06.jpg,img/03.jpg,low,4,1,2.299917666,0.25,NA,329,19,female,undergraduate,occupational therapy,yes,NA,no,NA,NA,yes,NA,yes,English,4,12,NA,NA,NA,NA,NA,NA,NA,NA,NA,yes,NA,yes,NA
1,brazilian-portuguese,L_balanced,mbrola,lab,291,2,test cswl,35,NA,NA,NA,NA,NA,NA,audio/pp3.wav,img/06.jpg,img/04.jpg,img/03.jpg,img/02.jpg,high,2,1,2.466267502,0.25,NA,329,19,female,undergraduate,occupational therapy,yes,NA,no,NA,NA,yes,NA,yes,English,4,12,NA,NA,NA,NA,NA,NA,NA,NA,NA,yes,NA,yes,NA
1,brazilian-portuguese,L_balanced,mbrola,lab,291,2,test cswl,36,NA,NA,NA,NA,NA,NA,audio/p5.wav,img/02.jpg,img/03.jpg,img/04.jpg,img/05.jpg,low,3,1,1.649863613,0.25,NA,329,19,female,undergraduate,occupational therapy,yes,NA,no,NA,NA,yes,NA,yes,English,4,12,NA,NA,NA,NA,NA,NA,NA,NA,NA,yes,NA,yes,NA
1,brazilian-portuguese,L_balanced,mbrola,lab,291,2,test cswl,37,NA,NA,NA,NA,NA,NA,audio/pp2.wav,img/05.jpg,img/02.jpg,img/03.jpg,img/04.jpg,high,2,1,1.533398942,0.25,NA,329,19,female,undergraduate,occupational therapy,yes,NA,no,NA,NA,yes,NA,yes,English,4,12,NA,NA,NA,NA,NA,NA,NA,NA,NA,yes,NA,yes,NA
1,brazilian-portuguese,L_balanced,mbrola,lab,291,2,self evaluation cswl,NA,NA,NA,NA,NA,NA,NA,NA,NA,NA,NA,NA,NA,4,NA,4.04942674,NA,NA,329,19,female,undergraduate,occupational therapy,yes,NA,no,NA,NA,yes,NA,yes,English,4,12,NA,NA,NA,NA,NA,NA,NA,NA,NA,yes,NA,yes,NA
1,brazilian-portuguese,L_balanced,mbrola,lab,292,3,warm up ws,NA,NA,NA,NA,audio/tela.wav,audio/bafi.wav,NA,NA,NA,NA,NA,NA,NA,2,1,4.399092157,NA,NA,330,23,female,undergraduate,social sciences,yes,NA,no,NA,NA,yes,NA,yes,English,5,10,NA,NA,NA,NA,NA,NA,NA,NA,NA,yes,NA,yes,NA
1,brazilian-portuguese,L_balanced,mbrola,lab,292,3,warm up ws,NA,NA,NA,NA,audio/pato.wav,audio/tibo.wav,NA,NA,NA,NA,NA,NA,NA,1,1,1.233594742,NA,NA,330,23,female,undergraduate,social sciences,yes,NA,no,NA,NA,yes,NA,yes,English,5,10,NA,NA,NA,NA,NA,NA,NA,NA,NA,yes,NA,yes,NA
1,brazilian-portuguese,L_balanced,mbrola,lab,292,3,warm up ws,NA,NA,NA,NA,audio/bola.wav,audio/fabu.wav,NA,NA,NA,NA,NA,NA,NA,1,1,1.083515601,NA,NA,330,23,female,undergraduate,social sciences,yes,NA,no,NA,NA,yes,NA,yes,English,5,10,NA,NA,NA,NA,NA,NA,NA,NA,NA,yes,NA,yes,NA
1,brazilian-portuguese,L_balanced,mbrola,lab,292,3,warm up ws,NA,NA,NA,NA,audio/cabo.wav,audio/guvi.wav,NA,NA,NA,NA,NA,NA,NA,2,1,0.467952958,NA,NA,330,23,female,undergraduate,social sciences,yes,NA,no,NA,NA,yes,NA,yes,English,5,10,NA,NA,NA,NA,NA,NA,NA,NA,NA,yes,NA,yes,NA
1,brazilian-portuguese,L_balanced,mbrola,lab,292,3,test ws,5,2,NA,NA,audio/pp3.wav,audio/pp4.wav,part_word,NA,NA,NA,NA,NA,NA,1,1,0.78351754,0.5,NA,330,23,female,undergraduate,social sciences,yes,NA,no,NA,NA,yes,NA,yes,English,5,10,NA,NA,NA,NA,NA,NA,NA,NA,NA,yes,NA,yes,NA
1,brazilian-portuguese,L_balanced,mbrola,lab,292,3,test ws,6,2,NA,NA,audio/pp2.wav,audio/pp5.wav,part_word,NA,NA,NA,NA,NA,NA,1,1,3.216008069,0.5,NA,330,23,female,undergraduate,social sciences,yes,NA,no,NA,NA,yes,NA,yes,English,5,10,NA,NA,NA,NA,NA,NA,NA,NA,NA,yes,NA,yes,NA
1,brazilian-portuguese,L_balanced,mbrola,lab,292,3,test ws,7,2,NA,NA,audio/pp1.wav,audio/pp6.wav,part_word,NA,NA,NA,NA,NA,NA,2,1,0.400315766,0.5,NA,330,23,female,undergraduate,social sciences,yes,NA,no,NA,NA,yes,NA,yes,English,5,10,NA,NA,NA,NA,NA,NA,NA,NA,NA,yes,NA,yes,NA
1,brazilian-portuguese,L_balanced,mbrola,lab,292,3,test ws,8,6,NA,NA,audio/pp3.wav,audio/pp5.wav,part_word,NA,NA,NA,NA,NA,NA,1,1,0.167111598,0.5,NA,330,23,female,undergraduate,social sciences,yes,NA,no,NA,NA,yes,NA,yes,English,5,10,NA,NA,NA,NA,NA,NA,NA,NA,NA,yes,NA,yes,NA
1,brazilian-portuguese,L_balanced,mbrola,lab,292,3,test ws,9,6,NA,NA,audio/pp2.wav,audio/pp6.wav,part_word,NA,NA,NA,NA,NA,NA,2,1,0.283742191,0.5,NA,330,23,female,undergraduate,social sciences,yes,NA,no,NA,NA,yes,NA,yes,English,5,10,NA,NA,NA,NA,NA,NA,NA,NA,NA,yes,NA,yes,NA
1,brazilian-portuguese,L_balanced,mbrola,lab,292,3,test ws,10,6,NA,NA,audio/pp1.wav,audio/pp4.wav,part_word,NA,NA,NA,NA,NA,NA,2,1,0.41714809,0.5,NA,330,23,female,undergraduate,social sciences,yes,NA,no,NA,NA,yes,NA,yes,English,5,10,NA,NA,NA,NA,NA,NA,NA,NA,NA,yes,NA,yes,NA
1,brazilian-portuguese,L_balanced,mbrola,lab,292,3,test ws,11,5,NA,NA,audio/pp1.wav,audio/pp6.wav,part_word,NA,NA,NA,NA,NA,NA,2,1,0.666871552,0.5,NA,330,23,female,undergraduate,social sciences,yes,NA,no,NA,NA,yes,NA,yes,English,5,10,NA,NA,NA,NA,NA,NA,NA,NA,NA,yes,NA,yes,NA
1,brazilian-portuguese,L_balanced,mbrola,lab,292,3,test ws,12,5,NA,NA,audio/pp3.wav,audio/pp4.wav,part_word,NA,NA,NA,NA,NA,NA,1,1,0.20044668,0.5,NA,330,23,female,undergraduate,social sciences,yes,NA,no,NA,NA,yes,NA,yes,English,5,10,NA,NA,NA,NA,NA,NA,NA,NA,NA,yes,NA,yes,NA
1,brazilian-portuguese,L_balanced,mbrola,lab,292,3,test ws,13,5,NA,NA,audio/pp2.wav,audio/pp5.wav,part_word,NA,NA,NA,NA,NA,NA,1,1,0.38363226,0.5,NA,330,23,female,undergraduate,social sciences,yes,NA,no,NA,NA,yes,NA,yes,English,5,10,NA,NA,NA,NA,NA,NA,NA,NA,NA,yes,NA,yes,NA
1,brazilian-portuguese,L_balanced,mbrola,lab,292,3,test ws,14,3,NA,NA,audio/pp3.wav,audio/pp6.wav,part_word,NA,NA,NA,NA,NA,NA,2,1,0.200408478,0.5,NA,330,23,female,undergraduate,social sciences,yes,NA,no,NA,NA,yes,NA,yes,English,5,10,NA,NA,NA,NA,NA,NA,NA,NA,NA,yes,NA,yes,NA
1,brazilian-portuguese,L_balanced,mbrola,lab,292,3,test ws,15,3,NA,NA,audio/pp2.wav,audio/pp5.wav,part_word,NA,NA,NA,NA,NA,NA,2,1,0.23371391,0.5,NA,330,23,female,undergraduate,social sciences,yes,NA,no,NA,NA,yes,NA,yes,English,5,10,NA,NA,NA,NA,NA,NA,NA,NA,NA,yes,NA,yes,NA
1,brazilian-portuguese,L_balanced,mbrola,lab,292,3,test ws,16,3,NA,NA,audio/pp1.wav,audio/pp4.wav,part_word,NA,NA,NA,NA,NA,NA,2,1,0.550656051,0.5,NA,330,23,female,undergraduate,social sciences,yes,NA,no,NA,NA,yes,NA,yes,English,5,10,NA,NA,NA,NA,NA,NA,NA,NA,NA,yes,NA,yes,NA
1,brazilian-portuguese,L_balanced,mbrola,lab,292,3,test ws,17,1,NA,NA,audio/pp3.wav,audio/pp4.wav,part_word,NA,NA,NA,NA,NA,NA,1,1,0.417047738,0.5,NA,330,23,female,undergraduate,social sciences,yes,NA,no,NA,NA,yes,NA,yes,English,5,10,NA,NA,NA,NA,NA,NA,NA,NA,NA,yes,NA,yes,NA
1,brazilian-portuguese,L_balanced,mbrola,lab,292,3,test ws,18,1,NA,NA,audio/pp1.wav,audio/pp5.wav,part_word,NA,NA,NA,NA,NA,NA,2,1,0.283936623,0.5,NA,330,23,female,undergraduate,social sciences,yes,NA,no,NA,NA,yes,NA,yes,English,5,10,NA,NA,NA,NA,NA,NA,NA,NA,NA,yes,NA,yes,NA
1,brazilian-portuguese,L_balanced,mbrola,lab,292,3,test ws,19,1,NA,NA,audio/pp2.wav,audio/pp6.wav,part_word,NA,NA,NA,NA,NA,NA,1,1,0.41695879,0.5,NA,330,23,female,undergraduate,social sciences,yes,NA,no,NA,NA,yes,NA,yes,English,5,10,NA,NA,NA,NA,NA,NA,NA,NA,NA,yes,NA,yes,NA
1,brazilian-portuguese,L_balanced,mbrola,lab,292,3,test ws,20,4,NA,NA,audio/pp3.wav,audio/pp6.wav,part_word,NA,NA,NA,NA,NA,NA,2,1,0.32046415,0.5,NA,330,23,female,undergraduate,social sciences,yes,NA,no,NA,NA,yes,NA,yes,English,5,10,NA,NA,NA,NA,NA,NA,NA,NA,NA,yes,NA,yes,NA
1,brazilian-portuguese,L_balanced,mbrola,lab,292,3,test ws,21,4,NA,NA,audio/pp1.wav,audio/pp5.wav,part_word,NA,NA,NA,NA,NA,NA,2,1,0.366980114,0.5,NA,330,23,female,undergraduate,social sciences,yes,NA,no,NA,NA,yes,NA,yes,English,5,10,NA,NA,NA,NA,NA,NA,NA,NA,NA,yes,NA,yes,NA
1,brazilian-portuguese,L_balanced,mbrola,lab,292,3,test ws,22,4,NA,NA,audio/pp2.wav,audio/pp4.wav,part_word,NA,NA,NA,NA,NA,NA,1,1,1.100156914,0.5,NA,330,23,female,undergraduate,social sciences,yes,NA,no,NA,NA,yes,NA,yes,English,5,10,NA,NA,NA,NA,NA,NA,NA,NA,NA,yes,NA,yes,NA
1,brazilian-portuguese,L_balanced,mbrola,lab,292,3,self evaluation ws,NA,NA,NA,NA,NA,NA,NA,NA,NA,NA,NA,NA,NA,4,NA,3.315973972,NA,NA,330,23,female,undergraduate,social sciences,yes,NA,no,NA,NA,yes,NA,yes,English,5,10,NA,NA,NA,NA,NA,NA,NA,NA,NA,yes,NA,yes,NA
1,brazilian-portuguese,L_balanced,mbrola,lab,292,3,warm up cswl,NA,NA,NA,NA,NA,NA,NA,audio/pato.wav,img/pato.jpg,img/bola.jpg,img/gato.jpg,img/casa.jpg,NA,4,1,4.215769163,NA,NA,330,23,female,undergraduate,social sciences,yes,NA,no,NA,NA,yes,NA,yes,English,5,10,NA,NA,NA,NA,NA,NA,NA,NA,NA,yes,NA,yes,NA
1,brazilian-portuguese,L_balanced,mbrola,lab,292,3,warm up cswl,NA,NA,NA,NA,NA,NA,NA,audio/bola.wav,img/bola.jpg,img/casa.jpg,img/pato.jpg,img/gato.jpg,NA,2,1,1.349599277,NA,NA,330,23,female,undergraduate,social sciences,yes,NA,no,NA,NA,yes,NA,yes,English,5,10,NA,NA,NA,NA,NA,NA,NA,NA,NA,yes,NA,yes,NA
1,brazilian-portuguese,L_balanced,mbrola,lab,292,3,test cswl,26,NA,NA,NA,NA,NA,NA,audio/pp2.wav,img/05.jpg,img/01.jpg,img/04.jpg,img/02.jpg,high,4,1,2.749572934,0.25,NA,330,23,female,undergraduate,social sciences,yes,NA,no,NA,NA,yes,NA,yes,English,5,10,NA,NA,NA,NA,NA,NA,NA,NA,NA,yes,NA,yes,NA
1,brazilian-portuguese,L_balanced,mbrola,lab,292,3,test cswl,27,NA,NA,NA,NA,NA,NA,audio/p4.wav,img/01.jpg,img/03.jpg,img/05.jpg,img/04.jpg,low,1,1,3.782266562,0.25,NA,330,23,female,undergraduate,social sciences,yes,NA,no,NA,NA,yes,NA,yes,English,5,10,NA,NA,NA,NA,NA,NA,NA,NA,NA,yes,NA,yes,NA
1,brazilian-portuguese,L_balanced,mbrola,lab,292,3,test cswl,28,NA,NA,NA,NA,NA,NA,audio/pp3.wav,img/06.jpg,img/04.jpg,img/03.jpg,img/02.jpg,high,2,1,1.983118641,0.25,NA,330,23,female,undergraduate,social sciences,yes,NA,no,NA,NA,yes,NA,yes,English,5,10,NA,NA,NA,NA,NA,NA,NA,NA,NA,yes,NA,yes,NA
1,brazilian-portuguese,L_balanced,mbrola,lab,292,3,test cswl,29,NA,NA,NA,NA,NA,NA,audio/p4.wav,img/01.jpg,img/05.jpg,img/06.jpg,img/03.jpg,low,4,1,2.216525794,0.25,NA,330,23,female,undergraduate,social sciences,yes,NA,no,NA,NA,yes,NA,yes,English,5,10,NA,NA,NA,NA,NA,NA,NA,NA,NA,yes,NA,yes,NA
1,brazilian-portuguese,L_balanced,mbrola,lab,292,3,test cswl,30,NA,NA,NA,NA,NA,NA,audio/pp3.wav,img/06.jpg,img/01.jpg,img/02.jpg,img/03.jpg,high,2,1,2.916270011,0.25,NA,330,23,female,undergraduate,social sciences,yes,NA,no,NA,NA,yes,NA,yes,English,5,10,NA,NA,NA,NA,NA,NA,NA,NA,NA,yes,NA,yes,NA
1,brazilian-portuguese,L_balanced,mbrola,lab,292,3,test cswl,31,NA,NA,NA,NA,NA,NA,audio/p5.wav,img/02.jpg,img/03.jpg,img/04.jpg,img/05.jpg,low,3,1,1.682905621,0.25,NA,330,23,female,undergraduate,social sciences,yes,NA,no,NA,NA,yes,NA,yes,English,5,10,NA,NA,NA,NA,NA,NA,NA,NA,NA,yes,NA,yes,NA
1,brazilian-portuguese,L_balanced,mbrola,lab,292,3,test cswl,32,NA,NA,NA,NA,NA,NA,audio/p5.wav,img/02.jpg,img/05.jpg,img/04.jpg,img/06.jpg,low,3,1,1.066806437,0.25,NA,330,23,female,undergraduate,social sciences,yes,NA,no,NA,NA,yes,NA,yes,English,5,10,NA,NA,NA,NA,NA,NA,NA,NA,NA,yes,NA,yes,NA
1,brazilian-portuguese,L_balanced,mbrola,lab,292,3,test cswl,33,NA,NA,NA,NA,NA,NA,audio/p6.wav,img/03.jpg,img/02.jpg,img/06.jpg,img/01.jpg,low,3,1,1.799881174,0.25,NA,330,23,female,undergraduate,social sciences,yes,NA,no,NA,NA,yes,NA,yes,English,5,10,NA,NA,NA,NA,NA,NA,NA,NA,NA,yes,NA,yes,NA
1,brazilian-portuguese,L_balanced,mbrola,lab,292,3,test cswl,34,NA,NA,NA,NA,NA,NA,audio/pp1.wav,img/04.jpg,img/02.jpg,img/06.jpg,img/01.jpg,high,1,1,3.132770146,0.25,NA,330,23,female,undergraduate,social sciences,yes,NA,no,NA,NA,yes,NA,yes,English,5,10,NA,NA,NA,NA,NA,NA,NA,NA,NA,yes,NA,yes,NA
1,brazilian-portuguese,L_balanced,mbrola,lab,292,3,test cswl,35,NA,NA,NA,NA,NA,NA,audio/pp2.wav,img/05.jpg,img/02.jpg,img/03.jpg,img/04.jpg,high,2,1,1.166792297,0.25,NA,330,23,female,undergraduate,social sciences,yes,NA,no,NA,NA,yes,NA,yes,English,5,10,NA,NA,NA,NA,NA,NA,NA,NA,NA,yes,NA,yes,NA
1,brazilian-portuguese,L_balanced,mbrola,lab,292,3,test cswl,36,NA,NA,NA,NA,NA,NA,audio/p6.wav,img/03.jpg,img/01.jpg,img/05.jpg,img/06.jpg,low,1,1,1.266800963,0.25,NA,330,23,female,undergraduate,social sciences,yes,NA,no,NA,NA,yes,NA,yes,English,5,10,NA,NA,NA,NA,NA,NA,NA,NA,NA,yes,NA,yes,NA
1,brazilian-portuguese,L_balanced,mbrola,lab,292,3,test cswl,37,NA,NA,NA,NA,NA,NA,audio/pp1.wav,img/04.jpg,img/01.jpg,img/06.jpg,img/05.jpg,high,2,1,1.933295055,0.25,NA,330,23,female,undergraduate,social sciences,yes,NA,no,NA,NA,yes,NA,yes,English,5,10,NA,NA,NA,NA,NA,NA,NA,NA,NA,yes,NA,yes,NA
1,brazilian-portuguese,L_balanced,mbrola,lab,292,3,self evaluation cswl,NA,NA,NA,NA,NA,NA,NA,NA,NA,NA,NA,NA,NA,4,NA,1.016873947,NA,NA,330,23,female,undergraduate,social sciences,yes,NA,no,NA,NA,yes,NA,yes,English,5,10,NA,NA,NA,NA,NA,NA,NA,NA,NA,yes,NA,yes,NA
1,brazilian-portuguese,L_balanced,mbrola,lab,294,4,warm up ws,NA,NA,NA,NA,audio/tela.wav,audio/bafi.wav,NA,NA,NA,NA,NA,NA,NA,2,1,2.533085343,NA,NA,331,20,female,undergraduate,occupational therapy,yes,NA,yes,1,18,yes,NA,yes,English,5,14,NA,NA,NA,NA,NA,NA,NA,NA,NA,yes,NA,yes,NA
1,brazilian-portuguese,L_balanced,mbrola,lab,294,4,warm up ws,NA,NA,NA,NA,audio/bola.wav,audio/fabu.wav,NA,NA,NA,NA,NA,NA,NA,1,1,2.166779183,NA,NA,331,20,female,undergraduate,occupational therapy,yes,NA,yes,1,18,yes,NA,yes,English,5,14,NA,NA,NA,NA,NA,NA,NA,NA,NA,yes,NA,yes,NA
1,brazilian-portuguese,L_balanced,mbrola,lab,294,4,warm up ws,NA,NA,NA,NA,audio/pato.wav,audio/tibo.wav,NA,NA,NA,NA,NA,NA,NA,1,1,1.016843157,NA,NA,331,20,female,undergraduate,occupational therapy,yes,NA,yes,1,18,yes,NA,yes,English,5,14,NA,NA,NA,NA,NA,NA,NA,NA,NA,yes,NA,yes,NA
1,brazilian-portuguese,L_balanced,mbrola,lab,294,4,warm up ws,NA,NA,NA,NA,audio/cabo.wav,audio/guvi.wav,NA,NA,NA,NA,NA,NA,NA,2,1,0.73471857,NA,NA,331,20,female,undergraduate,occupational therapy,yes,NA,yes,1,18,yes,NA,yes,English,5,14,NA,NA,NA,NA,NA,NA,NA,NA,NA,yes,NA,yes,NA
1,brazilian-portuguese,L_balanced,mbrola,lab,294,4,test ws,5,3,NA,NA,audio/pp1.wav,audio/pp4.wav,part_word,NA,NA,NA,NA,NA,NA,2,1,0.533664077,0.5,NA,331,20,female,undergraduate,occupational therapy,yes,NA,yes,1,18,yes,NA,yes,English,5,14,NA,NA,NA,NA,NA,NA,NA,NA,NA,yes,NA,yes,NA
1,brazilian-portuguese,L_balanced,mbrola,lab,294,4,test ws,6,3,NA,NA,audio/pp2.wav,audio/pp5.wav,part_word,NA,NA,NA,NA,NA,NA,2,1,0.916378345,0.5,NA,331,20,female,undergraduate,occupational therapy,yes,NA,yes,1,18,yes,NA,yes,English,5,14,NA,NA,NA,NA,NA,NA,NA,NA,NA,yes,NA,yes,NA
1,brazilian-portuguese,L_balanced,mbrola,lab,294,4,test ws,7,3,NA,NA,audio/pp3.wav,audio/pp6.wav,part_word,NA,NA,NA,NA,NA,NA,2,1,0.783566005,0.5,NA,331,20,female,undergraduate,occupational therapy,yes,NA,yes,1,18,yes,NA,yes,English,5,14,NA,NA,NA,NA,NA,NA,NA,NA,NA,yes,NA,yes,NA
1,brazilian-portuguese,L_balanced,mbrola,lab,294,4,test ws,8,1,NA,NA,audio/pp1.wav,audio/pp5.wav,part_word,NA,NA,NA,NA,NA,NA,2,1,0.600218493,0.5,NA,331,20,female,undergraduate,occupational therapy,yes,NA,yes,1,18,yes,NA,yes,English,5,14,NA,NA,NA,NA,NA,NA,NA,NA,NA,yes,NA,yes,NA
1,brazilian-portuguese,L_balanced,mbrola,lab,294,4,test ws,9,1,NA,NA,audio/pp3.wav,audio/pp4.wav,part_word,NA,NA,NA,NA,NA,NA,1,1,0.683591549,0.5,NA,331,20,female,undergraduate,occupational therapy,yes,NA,yes,1,18,yes,NA,yes,English,5,14,NA,NA,NA,NA,NA,NA,NA,NA,NA,yes,NA,yes,NA
1,brazilian-portuguese,L_balanced,mbrola,lab,294,4,test ws,10,1,NA,NA,audio/pp2.wav,audio/pp6.wav,part_word,NA,NA,NA,NA,NA,NA,1,1,1.699945491,0.5,NA,331,20,female,undergraduate,occupational therapy,yes,NA,yes,1,18,yes,NA,yes,English,5,14,NA,NA,NA,NA,NA,NA,NA,NA,NA,yes,NA,yes,NA
1,brazilian-portuguese,L_balanced,mbrola,lab,294,4,test ws,11,5,NA,NA,audio/pp3.wav,audio/pp4.wav,part_word,NA,NA,NA,NA,NA,NA,1,1,0.58360683,0.5,NA,331,20,female,undergraduate,occupational therapy,yes,NA,yes,1,18,yes,NA,yes,English,5,14,NA,NA,NA,NA,NA,NA,NA,NA,NA,yes,NA,yes,NA
1,brazilian-portuguese,L_balanced,mbrola,lab,294,4,test ws,12,5,NA,NA,audio/pp1.wav,audio/pp6.wav,part_word,NA,NA,NA,NA,NA,NA,2,1,0.417111598,0.5,NA,331,20,female,undergraduate,occupational therapy,yes,NA,yes,1,18,yes,NA,yes,English,5,14,NA,NA,NA,NA,NA,NA,NA,NA,NA,yes,NA,yes,NA
1,brazilian-portuguese,L_balanced,mbrola,lab,294,4,test ws,13,5,NA,NA,audio/pp2.wav,audio/pp5.wav,part_word,NA,NA,NA,NA,NA,NA,1,1,0.566913631,0.5,NA,331,20,female,undergraduate,occupational therapy,yes,NA,yes,1,18,yes,NA,yes,English,5,14,NA,NA,NA,NA,NA,NA,NA,NA,NA,yes,NA,yes,NA
1,brazilian-portuguese,L_balanced,mbrola,lab,294,4,test ws,14,2,NA,NA,audio/pp1.wav,audio/pp6.wav,part_word,NA,NA,NA,NA,NA,NA,2,1,0.567199292,0.5,NA,331,20,female,undergraduate,occupational therapy,yes,NA,yes,1,18,yes,NA,yes,English,5,14,NA,NA,NA,NA,NA,NA,NA,NA,NA,yes,NA,yes,NA
1,brazilian-portuguese,L_balanced,mbrola,lab,294,4,test ws,15,2,NA,NA,audio/pp2.wav,audio/pp5.wav,part_word,NA,NA,NA,NA,NA,NA,1,1,0.566966088,0.5,NA,331,20,female,undergraduate,occupational therapy,yes,NA,yes,1,18,yes,NA,yes,English,5,14,NA,NA,NA,NA,NA,NA,NA,NA,NA,yes,NA,yes,NA
1,brazilian-portuguese,L_balanced,mbrola,lab,294,4,test ws,16,2,NA,NA,audio/pp3.wav,audio/pp4.wav,part_word,NA,NA,NA,NA,NA,NA,1,1,0.550997019,0.5,NA,331,20,female,undergraduate,occupational therapy,yes,NA,yes,1,18,yes,NA,yes,English,5,14,NA,NA,NA,NA,NA,NA,NA,NA,NA,yes,NA,yes,NA
1,brazilian-portuguese,L_balanced,mbrola,lab,294,4,test ws,17,6,NA,NA,audio/pp1.wav,audio/pp4.wav,part_word,NA,NA,NA,NA,NA,NA,2,1,0.367084458,0.5,NA,331,20,female,undergraduate,occupational therapy,yes,NA,yes,1,18,yes,NA,yes,English,5,14,NA,NA,NA,NA,NA,NA,NA,NA,NA,yes,NA,yes,NA
1,brazilian-portuguese,L_balanced,mbrola,lab,294,4,test ws,18,6,NA,NA,audio/pp2.wav,audio/pp6.wav,part_word,NA,NA,NA,NA,NA,NA,1,0,1.816576654,0.5,NA,331,20,female,undergraduate,occupational therapy,yes,NA,yes,1,18,yes,NA,yes,English,5,14,NA,NA,NA,NA,NA,NA,NA,NA,NA,yes,NA,yes,NA
1,brazilian-portuguese,L_balanced,mbrola,lab,294,4,test ws,19,6,NA,NA,audio/pp3.wav,audio/pp5.wav,part_word,NA,NA,NA,NA,NA,NA,1,1,0.7503786,0.5,NA,331,20,female,undergraduate,occupational therapy,yes,NA,yes,1,18,yes,NA,yes,English,5,14,NA,NA,NA,NA,NA,NA,NA,NA,NA,yes,NA,yes,NA
1,brazilian-portuguese,L_balanced,mbrola,lab,294,4,test ws,20,4,NA,NA,audio/pp2.wav,audio/pp4.wav,part_word,NA,NA,NA,NA,NA,NA,1,1,0.816879991,0.5,NA,331,20,female,undergraduate,occupational therapy,yes,NA,yes,1,18,yes,NA,yes,English,5,14,NA,NA,NA,NA,NA,NA,NA,NA,NA,yes,NA,yes,NA
1,brazilian-portuguese,L_balanced,mbrola,lab,294,4,test ws,21,4,NA,NA,audio/pp3.wav,audio/pp6.wav,part_word,NA,NA,NA,NA,NA,NA,2,1,0.36702915,0.5,NA,331,20,female,undergraduate,occupational therapy,yes,NA,yes,1,18,yes,NA,yes,English,5,14,NA,NA,NA,NA,NA,NA,NA,NA,NA,yes,NA,yes,NA
1,brazilian-portuguese,L_balanced,mbrola,lab,294,4,test ws,22,4,NA,NA,audio/pp1.wav,audio/pp5.wav,part_word,NA,NA,NA,NA,NA,NA,2,1,0.266968027,0.5,NA,331,20,female,undergraduate,occupational therapy,yes,NA,yes,1,18,yes,NA,yes,English,5,14,NA,NA,NA,NA,NA,NA,NA,NA,NA,yes,NA,yes,NA
1,brazilian-portuguese,L_balanced,mbrola,lab,294,4,self evaluation ws,NA,NA,NA,NA,NA,NA,NA,NA,NA,NA,NA,NA,NA,2,NA,5.065475064,NA,NA,331,20,female,undergraduate,occupational therapy,yes,NA,yes,1,18,yes,NA,yes,English,5,14,NA,NA,NA,NA,NA,NA,NA,NA,NA,yes,NA,yes,NA
1,brazilian-portuguese,L_balanced,mbrola,lab,294,4,warm up cswl,NA,NA,NA,NA,NA,NA,NA,audio/pato.wav,img/pato.jpg,img/bola.jpg,img/gato.jpg,img/casa.jpg,NA,4,1,1.933182729,NA,NA,331,20,female,undergraduate,occupational therapy,yes,NA,yes,1,18,yes,NA,yes,English,5,14,NA,NA,NA,NA,NA,NA,NA,NA,NA,yes,NA,yes,NA
1,brazilian-portuguese,L_balanced,mbrola,lab,294,4,warm up cswl,NA,NA,NA,NA,NA,NA,NA,audio/bola.wav,img/bola.jpg,img/casa.jpg,img/pato.jpg,img/gato.jpg,NA,2,1,1.533019772,NA,NA,331,20,female,undergraduate,occupational therapy,yes,NA,yes,1,18,yes,NA,yes,English,5,14,NA,NA,NA,NA,NA,NA,NA,NA,NA,yes,NA,yes,NA
1,brazilian-portuguese,L_balanced,mbrola,lab,294,4,test cswl,26,NA,NA,NA,NA,NA,NA,audio/pp3.wav,img/06.jpg,img/01.jpg,img/02.jpg,img/03.jpg,high,2,1,2.433077246,0.25,NA,331,20,female,undergraduate,occupational therapy,yes,NA,yes,1,18,yes,NA,yes,English,5,14,NA,NA,NA,NA,NA,NA,NA,NA,NA,yes,NA,yes,NA
1,brazilian-portuguese,L_balanced,mbrola,lab,294,4,test cswl,27,NA,NA,NA,NA,NA,NA,audio/p5.wav,img/02.jpg,img/03.jpg,img/04.jpg,img/05.jpg,low,3,1,2.533126396,0.25,NA,331,20,female,undergraduate,occupational therapy,yes,NA,yes,1,18,yes,NA,yes,English,5,14,NA,NA,NA,NA,NA,NA,NA,NA,NA,yes,NA,yes,NA
1,brazilian-portuguese,L_balanced,mbrola,lab,294,4,test cswl,28,NA,NA,NA,NA,NA,NA,audio/p6.wav,img/03.jpg,img/01.jpg,img/05.jpg,img/06.jpg,low,1,1,1.833226519,0.25,NA,331,20,female,undergraduate,occupational therapy,yes,NA,yes,1,18,yes,NA,yes,English,5,14,NA,NA,NA,NA,NA,NA,NA,NA,NA,yes,NA,yes,NA
1,brazilian-portuguese,L_balanced,mbrola,lab,294,4,test cswl,29,NA,NA,NA,NA,NA,NA,audio/p4.wav,img/01.jpg,img/03.jpg,img/05.jpg,img/04.jpg,low,1,1,2.566552136,0.25,NA,331,20,female,undergraduate,occupational therapy,yes,NA,yes,1,18,yes,NA,yes,English,5,14,NA,NA,NA,NA,NA,NA,NA,NA,NA,yes,NA,yes,NA
1,brazilian-portuguese,L_balanced,mbrola,lab,294,4,test cswl,30,NA,NA,NA,NA,NA,NA,audio/pp2.wav,img/05.jpg,img/02.jpg,img/03.jpg,img/04.jpg,high,2,1,2.749884823,0.25,NA,331,20,female,undergraduate,occupational therapy,yes,NA,yes,1,18,yes,NA,yes,English,5,14,NA,NA,NA,NA,NA,NA,NA,NA,NA,yes,NA,yes,NA
1,brazilian-portuguese,L_balanced,mbrola,lab,294,4,test cswl,31,NA,NA,NA,NA,NA,NA,audio/pp1.wav,img/04.jpg,img/01.jpg,img/06.jpg,img/05.jpg,high,2,1,2.133183528,0.25,NA,331,20,female,undergraduate,occupational therapy,yes,NA,yes,1,18,yes,NA,yes,English,5,14,NA,NA,NA,NA,NA,NA,NA,NA,NA,yes,NA,yes,NA
1,brazilian-portuguese,L_balanced,mbrola,lab,294,4,test cswl,32,NA,NA,NA,NA,NA,NA,audio/pp2.wav,img/05.jpg,img/01.jpg,img/04.jpg,img/02.jpg,high,4,1,2.416303651,0.25,NA,331,20,female,undergraduate,occupational therapy,yes,NA,yes,1,18,yes,NA,yes,English,5,14,NA,NA,NA,NA,NA,NA,NA,NA,NA,yes,NA,yes,NA
1,brazilian-portuguese,L_balanced,mbrola,lab,294,4,test cswl,33,NA,NA,NA,NA,NA,NA,audio/p6.wav,img/03.jpg,img/02.jpg,img/06.jpg,img/01.jpg,low,3,1,1.516721138,0.25,NA,331,20,female,undergraduate,occupational therapy,yes,NA,yes,1,18,yes,NA,yes,English,5,14,NA,NA,NA,NA,NA,NA,NA,NA,NA,yes,NA,yes,NA
1,brazilian-portuguese,L_balanced,mbrola,lab,294,4,test cswl,34,NA,NA,NA,NA,NA,NA,audio/pp3.wav,img/06.jpg,img/04.jpg,img/03.jpg,img/02.jpg,high,2,1,1.79955275,0.25,NA,331,20,female,undergraduate,occupational therapy,yes,NA,yes,1,18,yes,NA,yes,English,5,14,NA,NA,NA,NA,NA,NA,NA,NA,NA,yes,NA,yes,NA
1,brazilian-portuguese,L_balanced,mbrola,lab,294,4,test cswl,35,NA,NA,NA,NA,NA,NA,audio/p5.wav,img/02.jpg,img/05.jpg,img/04.jpg,img/06.jpg,low,3,1,1.38334945,0.25,NA,331,20,female,undergraduate,occupational therapy,yes,NA,yes,1,18,yes,NA,yes,English,5,14,NA,NA,NA,NA,NA,NA,NA,NA,NA,yes,NA,yes,NA
1,brazilian-portuguese,L_balanced,mbrola,lab,294,4,test cswl,36,NA,NA,NA,NA,NA,NA,audio/p4.wav,img/01.jpg,img/05.jpg,img/06.jpg,img/03.jpg,low,4,1,2.032844726,0.25,NA,331,20,female,undergraduate,occupational therapy,yes,NA,yes,1,18,yes,NA,yes,English,5,14,NA,NA,NA,NA,NA,NA,NA,NA,NA,yes,NA,yes,NA
1,brazilian-portuguese,L_balanced,mbrola,lab,294,4,test cswl,37,NA,NA,NA,NA,NA,NA,audio/pp1.wav,img/04.jpg,img/02.jpg,img/06.jpg,img/01.jpg,high,1,1,1.549980386,0.25,NA,331,20,female,undergraduate,occupational therapy,yes,NA,yes,1,18,yes,NA,yes,English,5,14,NA,NA,NA,NA,NA,NA,NA,NA,NA,yes,NA,yes,NA
1,brazilian-portuguese,L_balanced,mbrola,lab,294,4,self evaluation cswl,NA,NA,NA,NA,NA,NA,NA,NA,NA,NA,NA,NA,NA,3,NA,1.849920859,NA,NA,331,20,female,undergraduate,occupational therapy,yes,NA,yes,1,18,yes,NA,yes,English,5,14,NA,NA,NA,NA,NA,NA,NA,NA,NA,yes,NA,yes,NA
1,brazilian-portuguese,L_balanced,mbrola,lab,296,5,warm up ws,NA,NA,NA,NA,audio/pato.wav,audio/tibo.wav,NA,NA,NA,NA,NA,NA,NA,2,0,4.832291992,NA,NA,332,19,female,undergraduate,civil engineering,yes,NA,no,NA,NA,yes,NA,yes,English,5,7,NA,NA,NA,NA,NA,NA,NA,NA,NA,yes,NA,yes,NA
1,brazilian-portuguese,L_balanced,mbrola,lab,296,5,warm up ws,NA,NA,NA,NA,audio/cabo.wav,audio/guvi.wav,NA,NA,NA,NA,NA,NA,NA,2,1,1.200098869,NA,NA,332,19,female,undergraduate,civil engineering,yes,NA,no,NA,NA,yes,NA,yes,English,5,7,NA,NA,NA,NA,NA,NA,NA,NA,NA,yes,NA,yes,NA
1,brazilian-portuguese,L_balanced,mbrola,lab,296,5,warm up ws,NA,NA,NA,NA,audio/bola.wav,audio/fabu.wav,NA,NA,NA,NA,NA,NA,NA,1,1,1.849983009,NA,NA,332,19,female,undergraduate,civil engineering,yes,NA,no,NA,NA,yes,NA,yes,English,5,7,NA,NA,NA,NA,NA,NA,NA,NA,NA,yes,NA,yes,NA
1,brazilian-portuguese,L_balanced,mbrola,lab,296,5,warm up ws,NA,NA,NA,NA,audio/tela.wav,audio/bafi.wav,NA,NA,NA,NA,NA,NA,NA,2,1,1.766713726,NA,NA,332,19,female,undergraduate,civil engineering,yes,NA,no,NA,NA,yes,NA,yes,English,5,7,NA,NA,NA,NA,NA,NA,NA,NA,NA,yes,NA,yes,NA
1,brazilian-portuguese,L_balanced,mbrola,lab,296,5,test ws,5,5,NA,NA,audio/pp3.wav,audio/pp4.wav,part_word,NA,NA,NA,NA,NA,NA,1,1,0.599961342,0.5,NA,332,19,female,undergraduate,civil engineering,yes,NA,no,NA,NA,yes,NA,yes,English,5,7,NA,NA,NA,NA,NA,NA,NA,NA,NA,yes,NA,yes,NA
1,brazilian-portuguese,L_balanced,mbrola,lab,296,5,test ws,6,5,NA,NA,audio/pp1.wav,audio/pp6.wav,part_word,NA,NA,NA,NA,NA,NA,2,1,0.467032115,0.5,NA,332,19,female,undergraduate,civil engineering,yes,NA,no,NA,NA,yes,NA,yes,English,5,7,NA,NA,NA,NA,NA,NA,NA,NA,NA,yes,NA,yes,NA
1,brazilian-portuguese,L_balanced,mbrola,lab,296,5,test ws,7,5,NA,NA,audio/pp2.wav,audio/pp5.wav,part_word,NA,NA,NA,NA,NA,NA,2,0,1.316786481,0.5,NA,332,19,female,undergraduate,civil engineering,yes,NA,no,NA,NA,yes,NA,yes,English,5,7,NA,NA,NA,NA,NA,NA,NA,NA,NA,yes,NA,yes,NA
1,brazilian-portuguese,L_balanced,mbrola,lab,296,5,test ws,8,1,NA,NA,audio/pp3.wav,audio/pp4.wav,part_word,NA,NA,NA,NA,NA,NA,1,1,0.467187204,0.5,NA,332,19,female,undergraduate,civil engineering,yes,NA,no,NA,NA,yes,NA,yes,English,5,7,NA,NA,NA,NA,NA,NA,NA,NA,NA,yes,NA,yes,NA
1,brazilian-portuguese,L_balanced,mbrola,lab,296,5,test ws,9,1,NA,NA,audio/pp2.wav,audio/pp6.wav,part_word,NA,NA,NA,NA,NA,NA,2,0,4.449035481,0.5,NA,332,19,female,undergraduate,civil engineering,yes,NA,no,NA,NA,yes,NA,yes,English,5,7,NA,NA,NA,NA,NA,NA,NA,NA,NA,yes,NA,yes,NA
1,brazilian-portuguese,L_balanced,mbrola,lab,296,5,test ws,10,1,NA,NA,audio/pp1.wav,audio/pp5.wav,part_word,NA,NA,NA,NA,NA,NA,2,1,0.333972887,0.5,NA,332,19,female,undergraduate,civil engineering,yes,NA,no,NA,NA,yes,NA,yes,English,5,7,NA,NA,NA,NA,NA,NA,NA,NA,NA,yes,NA,yes,NA
1,brazilian-portuguese,L_balanced,mbrola,lab,296,5,test ws,11,2,NA,NA,audio/pp1.wav,audio/pp6.wav,part_word,NA,NA,NA,NA,NA,NA,2,1,0.300469601,0.5,NA,332,19,female,undergraduate,civil engineering,yes,NA,no,NA,NA,yes,NA,yes,English,5,7,NA,NA,NA,NA,NA,NA,NA,NA,NA,yes,NA,yes,NA
1,brazilian-portuguese,L_balanced,mbrola,lab,296,5,test ws,12,2,NA,NA,audio/pp3.wav,audio/pp4.wav,part_word,NA,NA,NA,NA,NA,NA,1,1,0.317090387,0.5,NA,332,19,female,undergraduate,civil engineering,yes,NA,no,NA,NA,yes,NA,yes,English,5,7,NA,NA,NA,NA,NA,NA,NA,NA,NA,yes,NA,yes,NA
1,brazilian-portuguese,L_balanced,mbrola,lab,296,5,test ws,13,2,NA,NA,audio/pp2.wav,audio/pp5.wav,part_word,NA,NA,NA,NA,NA,NA,2,0,0.600456259,0.5,NA,332,19,female,undergraduate,civil engineering,yes,NA,no,NA,NA,yes,NA,yes,English,5,7,NA,NA,NA,NA,NA,NA,NA,NA,NA,yes,NA,yes,NA
1,brazilian-portuguese,L_balanced,mbrola,lab,296,5,test ws,14,6,NA,NA,audio/pp2.wav,audio/pp6.wav,part_word,NA,NA,NA,NA,NA,NA,2,1,5.815309141,0.5,NA,332,19,female,undergraduate,civil engineering,yes,NA,no,NA,NA,yes,NA,yes,English,5,7,NA,NA,NA,NA,NA,NA,NA,NA,NA,yes,NA,yes,NA
1,brazilian-portuguese,L_balanced,mbrola,lab,296,5,test ws,15,6,NA,NA,audio/pp3.wav,audio/pp5.wav,part_word,NA,NA,NA,NA,NA,NA,1,1,0.533659515,0.5,NA,332,19,female,undergraduate,civil engineering,yes,NA,no,NA,NA,yes,NA,yes,English,5,7,NA,NA,NA,NA,NA,NA,NA,NA,NA,yes,NA,yes,NA
1,brazilian-portuguese,L_balanced,mbrola,lab,296,5,test ws,16,6,NA,NA,audio/pp1.wav,audio/pp4.wav,part_word,NA,NA,NA,NA,NA,NA,2,1,0.450549313,0.5,NA,332,19,female,undergraduate,civil engineering,yes,NA,no,NA,NA,yes,NA,yes,English,5,7,NA,NA,NA,NA,NA,NA,NA,NA,NA,yes,NA,yes,NA
1,brazilian-portuguese,L_balanced,mbrola,lab,296,5,test ws,17,3,NA,NA,audio/pp3.wav,audio/pp6.wav,part_word,NA,NA,NA,NA,NA,NA,2,1,0.267249696,0.5,NA,332,19,female,undergraduate,civil engineering,yes,NA,no,NA,NA,yes,NA,yes,English,5,7,NA,NA,NA,NA,NA,NA,NA,NA,NA,yes,NA,yes,NA
1,brazilian-portuguese,L_balanced,mbrola,lab,296,5,test ws,18,3,NA,NA,audio/pp1.wav,audio/pp4.wav,part_word,NA,NA,NA,NA,NA,NA,2,1,0.333440908,0.5,NA,332,19,female,undergraduate,civil engineering,yes,NA,no,NA,NA,yes,NA,yes,English,5,7,NA,NA,NA,NA,NA,NA,NA,NA,NA,yes,NA,yes,NA
1,brazilian-portuguese,L_balanced,mbrola,lab,296,5,test ws,19,3,NA,NA,audio/pp2.wav,audio/pp5.wav,part_word,NA,NA,NA,NA,NA,NA,1,0,0.616994939,0.5,NA,332,19,female,undergraduate,civil engineering,yes,NA,no,NA,NA,yes,NA,yes,English,5,7,NA,NA,NA,NA,NA,NA,NA,NA,NA,yes,NA,yes,NA
1,brazilian-portuguese,L_balanced,mbrola,lab,296,5,test ws,20,4,NA,NA,audio/pp3.wav,audio/pp6.wav,part_word,NA,NA,NA,NA,NA,NA,2,1,1.333404986,0.5,NA,332,19,female,undergraduate,civil engineering,yes,NA,no,NA,NA,yes,NA,yes,English,5,7,NA,NA,NA,NA,NA,NA,NA,NA,NA,yes,NA,yes,NA
1,brazilian-portuguese,L_balanced,mbrola,lab,296,5,test ws,21,4,NA,NA,audio/pp2.wav,audio/pp4.wav,part_word,NA,NA,NA,NA,NA,NA,1,1,2.682938692,0.5,NA,332,19,female,undergraduate,civil engineering,yes,NA,no,NA,NA,yes,NA,yes,English,5,7,NA,NA,NA,NA,NA,NA,NA,NA,NA,yes,NA,yes,NA
1,brazilian-portuguese,L_balanced,mbrola,lab,296,5,test ws,22,4,NA,NA,audio/pp1.wav,audio/pp5.wav,part_word,NA,NA,NA,NA,NA,NA,2,1,0.23380799,0.5,NA,332,19,female,undergraduate,civil engineering,yes,NA,no,NA,NA,yes,NA,yes,English,5,7,NA,NA,NA,NA,NA,NA,NA,NA,NA,yes,NA,yes,NA
1,brazilian-portuguese,L_balanced,mbrola,lab,296,5,self evaluation ws,NA,NA,NA,NA,NA,NA,NA,NA,NA,NA,NA,NA,NA,3,NA,6.715195561,NA,NA,332,19,female,undergraduate,civil engineering,yes,NA,no,NA,NA,yes,NA,yes,English,5,7,NA,NA,NA,NA,NA,NA,NA,NA,NA,yes,NA,yes,NA
1,brazilian-portuguese,L_balanced,mbrola,lab,296,5,warm up cswl,NA,NA,NA,NA,NA,NA,NA,audio/pato.wav,img/pato.jpg,img/bola.jpg,img/gato.jpg,img/casa.jpg,NA,4,1,3.299448977,NA,NA,332,19,female,undergraduate,civil engineering,yes,NA,no,NA,NA,yes,NA,yes,English,5,7,NA,NA,NA,NA,NA,NA,NA,NA,NA,yes,NA,yes,NA
1,brazilian-portuguese,L_balanced,mbrola,lab,296,5,warm up cswl,NA,NA,NA,NA,NA,NA,NA,audio/bola.wav,img/bola.jpg,img/casa.jpg,img/pato.jpg,img/gato.jpg,NA,2,1,1.416738129,NA,NA,332,19,female,undergraduate,civil engineering,yes,NA,no,NA,NA,yes,NA,yes,English,5,7,NA,NA,NA,NA,NA,NA,NA,NA,NA,yes,NA,yes,NA
1,brazilian-portuguese,L_balanced,mbrola,lab,296,5,test cswl,26,NA,NA,NA,NA,NA,NA,audio/pp2.wav,img/05.jpg,img/02.jpg,img/03.jpg,img/04.jpg,high,2,1,2.499965219,0.25,NA,332,19,female,undergraduate,civil engineering,yes,NA,no,NA,NA,yes,NA,yes,English,5,7,NA,NA,NA,NA,NA,NA,NA,NA,NA,yes,NA,yes,NA
1,brazilian-portuguese,L_balanced,mbrola,lab,296,5,test cswl,27,NA,NA,NA,NA,NA,NA,audio/pp1.wav,img/04.jpg,img/01.jpg,img/06.jpg,img/05.jpg,high,2,1,5.881895488,0.25,NA,332,19,female,undergraduate,civil engineering,yes,NA,no,NA,NA,yes,NA,yes,English,5,7,NA,NA,NA,NA,NA,NA,NA,NA,NA,yes,NA,yes,NA
1,brazilian-portuguese,L_balanced,mbrola,lab,296,5,test cswl,28,NA,NA,NA,NA,NA,NA,audio/p5.wav,img/02.jpg,img/05.jpg,img/04.jpg,img/06.jpg,low,3,1,5.298781294,0.25,NA,332,19,female,undergraduate,civil engineering,yes,NA,no,NA,NA,yes,NA,yes,English,5,7,NA,NA,NA,NA,NA,NA,NA,NA,NA,yes,NA,yes,NA
1,brazilian-portuguese,L_balanced,mbrola,lab,296,5,test cswl,29,NA,NA,NA,NA,NA,NA,audio/p6.wav,img/03.jpg,img/02.jpg,img/06.jpg,img/01.jpg,low,3,1,5.199047455,0.25,NA,332,19,female,undergraduate,civil engineering,yes,NA,no,NA,NA,yes,NA,yes,English,5,7,NA,NA,NA,NA,NA,NA,NA,NA,NA,yes,NA,yes,NA
1,brazilian-portuguese,L_balanced,mbrola,lab,296,5,test cswl,30,NA,NA,NA,NA,NA,NA,audio/pp3.wav,img/06.jpg,img/01.jpg,img/02.jpg,img/03.jpg,high,2,1,2.383202344,0.25,NA,332,19,female,undergraduate,civil engineering,yes,NA,no,NA,NA,yes,NA,yes,English,5,7,NA,NA,NA,NA,NA,NA,NA,NA,NA,yes,NA,yes,NA
1,brazilian-portuguese,L_balanced,mbrola,lab,296,5,test cswl,31,NA,NA,NA,NA,NA,NA,audio/pp1.wav,img/04.jpg,img/02.jpg,img/06.jpg,img/01.jpg,high,1,1,1.849820507,0.25,NA,332,19,female,undergraduate,civil engineering,yes,NA,no,NA,NA,yes,NA,yes,English,5,7,NA,NA,NA,NA,NA,NA,NA,NA,NA,yes,NA,yes,NA
1,brazilian-portuguese,L_balanced,mbrola,lab,296,5,test cswl,32,NA,NA,NA,NA,NA,NA,audio/p5.wav,img/02.jpg,img/03.jpg,img/04.jpg,img/05.jpg,low,3,1,1.933263695,0.25,NA,332,19,female,undergraduate,civil engineering,yes,NA,no,NA,NA,yes,NA,yes,English,5,7,NA,NA,NA,NA,NA,NA,NA,NA,NA,yes,NA,yes,NA
1,brazilian-portuguese,L_balanced,mbrola,lab,296,5,test cswl,33,NA,NA,NA,NA,NA,NA,audio/p4.wav,img/01.jpg,img/03.jpg,img/05.jpg,img/04.jpg,low,1,1,2.39982313,0.25,NA,332,19,female,undergraduate,civil engineering,yes,NA,no,NA,NA,yes,NA,yes,English,5,7,NA,NA,NA,NA,NA,NA,NA,NA,NA,yes,NA,yes,NA
1,brazilian-portuguese,L_balanced,mbrola,lab,296,5,test cswl,34,NA,NA,NA,NA,NA,NA,audio/pp2.wav,img/05.jpg,img/01.jpg,img/04.jpg,img/02.jpg,high,4,1,2.399694269,0.25,NA,332,19,female,undergraduate,civil engineering,yes,NA,no,NA,NA,yes,NA,yes,English,5,7,NA,NA,NA,NA,NA,NA,NA,NA,NA,yes,NA,yes,NA
1,brazilian-portuguese,L_balanced,mbrola,lab,296,5,test cswl,35,NA,NA,NA,NA,NA,NA,audio/p4.wav,img/01.jpg,img/05.jpg,img/06.jpg,img/03.jpg,low,4,1,2.982509687,0.25,NA,332,19,female,undergraduate,civil engineering,yes,NA,no,NA,NA,yes,NA,yes,English,5,7,NA,NA,NA,NA,NA,NA,NA,NA,NA,yes,NA,yes,NA
1,brazilian-portuguese,L_balanced,mbrola,lab,296,5,test cswl,36,NA,NA,NA,NA,NA,NA,audio/pp3.wav,img/06.jpg,img/04.jpg,img/03.jpg,img/02.jpg,high,2,1,2.483041667,0.25,NA,332,19,female,undergraduate,civil engineering,yes,NA,no,NA,NA,yes,NA,yes,English,5,7,NA,NA,NA,NA,NA,NA,NA,NA,NA,yes,NA,yes,NA
1,brazilian-portuguese,L_balanced,mbrola,lab,296,5,test cswl,37,NA,NA,NA,NA,NA,NA,audio/p6.wav,img/03.jpg,img/01.jpg,img/05.jpg,img/06.jpg,low,1,1,2.299823016,0.25,NA,332,19,female,undergraduate,civil engineering,yes,NA,no,NA,NA,yes,NA,yes,English,5,7,NA,NA,NA,NA,NA,NA,NA,NA,NA,yes,NA,yes,NA
1,brazilian-portuguese,L_balanced,mbrola,lab,296,5,self evaluation cswl,NA,NA,NA,NA,NA,NA,NA,NA,NA,NA,NA,NA,NA,4,NA,2.949619347,NA,NA,332,19,female,undergraduate,civil engineering,yes,NA,no,NA,NA,yes,NA,yes,English,5,7,NA,NA,NA,NA,NA,NA,NA,NA,NA,yes,NA,yes,NA
1,brazilian-portuguese,L_balanced,mbrola,lab,297,6,warm up ws,NA,NA,NA,NA,audio/bola.wav,audio/fabu.wav,NA,NA,NA,NA,NA,NA,NA,2,0,4.565686601,NA,NA,333,23,male,undergraduate,computer engineering,yes,NA,no,NA,NA,yes,NA,yes,Spanish,2,12,English,1,12,NA,NA,NA,NA,NA,NA,yes,NA,yes,NA
1,brazilian-portuguese,L_balanced,mbrola,lab,297,6,warm up ws,NA,NA,NA,NA,audio/tela.wav,audio/bafi.wav,NA,NA,NA,NA,NA,NA,NA,2,1,1.516808376,NA,NA,333,23,male,undergraduate,computer engineering,yes,NA,no,NA,NA,yes,NA,yes,Spanish,2,12,English,1,12,NA,NA,NA,NA,NA,NA,yes,NA,yes,NA
1,brazilian-portuguese,L_balanced,mbrola,lab,297,6,warm up ws,NA,NA,NA,NA,audio/pato.wav,audio/tibo.wav,NA,NA,NA,NA,NA,NA,NA,1,1,1.416788875,NA,NA,333,23,male,undergraduate,computer engineering,yes,NA,no,NA,NA,yes,NA,yes,Spanish,2,12,English,1,12,NA,NA,NA,NA,NA,NA,yes,NA,yes,NA
1,brazilian-portuguese,L_balanced,mbrola,lab,297,6,warm up ws,NA,NA,NA,NA,audio/cabo.wav,audio/guvi.wav,NA,NA,NA,NA,NA,NA,NA,2,1,1.666606988,NA,NA,333,23,male,undergraduate,computer engineering,yes,NA,no,NA,NA,yes,NA,yes,Spanish,2,12,English,1,12,NA,NA,NA,NA,NA,NA,yes,NA,yes,NA
1,brazilian-portuguese,L_balanced,mbrola,lab,297,6,test ws,5,5,NA,NA,audio/pp3.wav,audio/pp4.wav,part_word,NA,NA,NA,NA,NA,NA,1,1,0.550258634,0.5,NA,333,23,male,undergraduate,computer engineering,yes,NA,no,NA,NA,yes,NA,yes,Spanish,2,12,English,1,12,NA,NA,NA,NA,NA,NA,yes,NA,yes,NA
1,brazilian-portuguese,L_balanced,mbrola,lab,297,6,test ws,6,5,NA,NA,audio/pp1.wav,audio/pp6.wav,part_word,NA,NA,NA,NA,NA,NA,2,1,0.467024132,0.5,NA,333,23,male,undergraduate,computer engineering,yes,NA,no,NA,NA,yes,NA,yes,Spanish,2,12,English,1,12,NA,NA,NA,NA,NA,NA,yes,NA,yes,NA
1,brazilian-portuguese,L_balanced,mbrola,lab,297,6,test ws,7,5,NA,NA,audio/pp2.wav,audio/pp5.wav,part_word,NA,NA,NA,NA,NA,NA,1,1,0.333993983,0.5,NA,333,23,male,undergraduate,computer engineering,yes,NA,no,NA,NA,yes,NA,yes,Spanish,2,12,English,1,12,NA,NA,NA,NA,NA,NA,yes,NA,yes,NA
1,brazilian-portuguese,L_balanced,mbrola,lab,297,6,test ws,8,3,NA,NA,audio/pp3.wav,audio/pp6.wav,part_word,NA,NA,NA,NA,NA,NA,1,0,0.433271678,0.5,NA,333,23,male,undergraduate,computer engineering,yes,NA,no,NA,NA,yes,NA,yes,Spanish,2,12,English,1,12,NA,NA,NA,NA,NA,NA,yes,NA,yes,NA
1,brazilian-portuguese,L_balanced,mbrola,lab,297,6,test ws,9,3,NA,NA,audio/pp1.wav,audio/pp4.wav,part_word,NA,NA,NA,NA,NA,NA,2,1,0.267082063,0.5,NA,333,23,male,undergraduate,computer engineering,yes,NA,no,NA,NA,yes,NA,yes,Spanish,2,12,English,1,12,NA,NA,NA,NA,NA,NA,yes,NA,yes,NA
1,brazilian-portuguese,L_balanced,mbrola,lab,297,6,test ws,10,3,NA,NA,audio/pp2.wav,audio/pp5.wav,part_word,NA,NA,NA,NA,NA,NA,2,1,0.400284406,0.5,NA,333,23,male,undergraduate,computer engineering,yes,NA,no,NA,NA,yes,NA,yes,Spanish,2,12,English,1,12,NA,NA,NA,NA,NA,NA,yes,NA,yes,NA
1,brazilian-portuguese,L_balanced,mbrola,lab,297,6,test ws,11,2,NA,NA,audio/pp3.wav,audio/pp4.wav,part_word,NA,NA,NA,NA,NA,NA,2,0,1.333430644,0.5,NA,333,23,male,undergraduate,computer engineering,yes,NA,no,NA,NA,yes,NA,yes,Spanish,2,12,English,1,12,NA,NA,NA,NA,NA,NA,yes,NA,yes,NA
1,brazilian-portuguese,L_balanced,mbrola,lab,297,6,test ws,12,2,NA,NA,audio/pp1.wav,audio/pp6.wav,part_word,NA,NA,NA,NA,NA,NA,1,0,0.300426838,0.5,NA,333,23,male,undergraduate,computer engineering,yes,NA,no,NA,NA,yes,NA,yes,Spanish,2,12,English,1,12,NA,NA,NA,NA,NA,NA,yes,NA,yes,NA
1,brazilian-portuguese,L_balanced,mbrola,lab,297,6,test ws,13,2,NA,NA,audio/pp2.wav,audio/pp5.wav,part_word,NA,NA,NA,NA,NA,NA,1,1,0.433851552,0.5,NA,333,23,male,undergraduate,computer engineering,yes,NA,no,NA,NA,yes,NA,yes,Spanish,2,12,English,1,12,NA,NA,NA,NA,NA,NA,yes,NA,yes,NA
1,brazilian-portuguese,L_balanced,mbrola,lab,297,6,test ws,14,6,NA,NA,audio/pp3.wav,audio/pp5.wav,part_word,NA,NA,NA,NA,NA,NA,1,1,0.38375998099999997,0.5,NA,333,23,male,undergraduate,computer engineering,yes,NA,no,NA,NA,yes,NA,yes,Spanish,2,12,English,1,12,NA,NA,NA,NA,NA,NA,yes,NA,yes,NA
1,brazilian-portuguese,L_balanced,mbrola,lab,297,6,test ws,15,6,NA,NA,audio/pp1.wav,audio/pp4.wav,part_word,NA,NA,NA,NA,NA,NA,2,1,0.800219862,0.5,NA,333,23,male,undergraduate,computer engineering,yes,NA,no,NA,NA,yes,NA,yes,Spanish,2,12,English,1,12,NA,NA,NA,NA,NA,NA,yes,NA,yes,NA
1,brazilian-portuguese,L_balanced,mbrola,lab,297,6,test ws,16,6,NA,NA,audio/pp2.wav,audio/pp6.wav,part_word,NA,NA,NA,NA,NA,NA,1,0,0.333765341,0.5,NA,333,23,male,undergraduate,computer engineering,yes,NA,no,NA,NA,yes,NA,yes,Spanish,2,12,English,1,12,NA,NA,NA,NA,NA,NA,yes,NA,yes,NA
1,brazilian-portuguese,L_balanced,mbrola,lab,297,6,test ws,17,1,NA,NA,audio/pp1.wav,audio/pp5.wav,part_word,NA,NA,NA,NA,NA,NA,2,1,1.100179721,0.5,NA,333,23,male,undergraduate,computer engineering,yes,NA,no,NA,NA,yes,NA,yes,Spanish,2,12,English,1,12,NA,NA,NA,NA,NA,NA,yes,NA,yes,NA
1,brazilian-portuguese,L_balanced,mbrola,lab,297,6,test ws,18,1,NA,NA,audio/pp3.wav,audio/pp4.wav,part_word,NA,NA,NA,NA,NA,NA,1,1,0.467054352,0.5,NA,333,23,male,undergraduate,computer engineering,yes,NA,no,NA,NA,yes,NA,yes,Spanish,2,12,English,1,12,NA,NA,NA,NA,NA,NA,yes,NA,yes,NA
1,brazilian-portuguese,L_balanced,mbrola,lab,297,6,test ws,19,1,NA,NA,audio/pp2.wav,audio/pp6.wav,part_word,NA,NA,NA,NA,NA,NA,1,1,1.299948456,0.5,NA,333,23,male,undergraduate,computer engineering,yes,NA,no,NA,NA,yes,NA,yes,Spanish,2,12,English,1,12,NA,NA,NA,NA,NA,NA,yes,NA,yes,NA
1,brazilian-portuguese,L_balanced,mbrola,lab,297,6,test ws,20,4,NA,NA,audio/pp3.wav,audio/pp6.wav,part_word,NA,NA,NA,NA,NA,NA,1,0,0.883607172,0.5,NA,333,23,male,undergraduate,computer engineering,yes,NA,no,NA,NA,yes,NA,yes,Spanish,2,12,English,1,12,NA,NA,NA,NA,NA,NA,yes,NA,yes,NA
1,brazilian-portuguese,L_balanced,mbrola,lab,297,6,test ws,21,4,NA,NA,audio/pp1.wav,audio/pp5.wav,part_word,NA,NA,NA,NA,NA,NA,2,1,0.233728735,0.5,NA,333,23,male,undergraduate,computer engineering,yes,NA,no,NA,NA,yes,NA,yes,Spanish,2,12,English,1,12,NA,NA,NA,NA,NA,NA,yes,NA,yes,NA
1,brazilian-portuguese,L_balanced,mbrola,lab,297,6,test ws,22,4,NA,NA,audio/pp2.wav,audio/pp4.wav,part_word,NA,NA,NA,NA,NA,NA,1,1,0.383643094,0.5,NA,333,23,male,undergraduate,computer engineering,yes,NA,no,NA,NA,yes,NA,yes,Spanish,2,12,English,1,12,NA,NA,NA,NA,NA,NA,yes,NA,yes,NA
1,brazilian-portuguese,L_balanced,mbrola,lab,297,6,self evaluation ws,NA,NA,NA,NA,NA,NA,NA,NA,NA,NA,NA,NA,NA,3,NA,6.098547292,NA,NA,333,23,male,undergraduate,computer engineering,yes,NA,no,NA,NA,yes,NA,yes,Spanish,2,12,English,1,12,NA,NA,NA,NA,NA,NA,yes,NA,yes,NA
1,brazilian-portuguese,L_balanced,mbrola,lab,297,6,warm up cswl,NA,NA,NA,NA,NA,NA,NA,audio/bola.wav,img/bola.jpg,img/casa.jpg,img/pato.jpg,img/gato.jpg,NA,2,1,2.36639967,NA,NA,333,23,male,undergraduate,computer engineering,yes,NA,no,NA,NA,yes,NA,yes,Spanish,2,12,English,1,12,NA,NA,NA,NA,NA,NA,yes,NA,yes,NA
1,brazilian-portuguese,L_balanced,mbrola,lab,297,6,warm up cswl,NA,NA,NA,NA,NA,NA,NA,audio/pato.wav,img/pato.jpg,img/bola.jpg,img/gato.jpg,img/casa.jpg,NA,4,1,1.783346486,NA,NA,333,23,male,undergraduate,computer engineering,yes,NA,no,NA,NA,yes,NA,yes,Spanish,2,12,English,1,12,NA,NA,NA,NA,NA,NA,yes,NA,yes,NA
1,brazilian-portuguese,L_balanced,mbrola,lab,297,6,test cswl,26,NA,NA,NA,NA,NA,NA,audio/pp2.wav,img/05.jpg,img/02.jpg,img/03.jpg,img/04.jpg,high,4,0,5.38209163,0.25,NA,333,23,male,undergraduate,computer engineering,yes,NA,no,NA,NA,yes,NA,yes,Spanish,2,12,English,1,12,NA,NA,NA,NA,NA,NA,yes,NA,yes,NA
1,brazilian-portuguese,L_balanced,mbrola,lab,297,6,test cswl,27,NA,NA,NA,NA,NA,NA,audio/pp1.wav,img/04.jpg,img/02.jpg,img/06.jpg,img/01.jpg,high,4,0,5.315104446,0.25,NA,333,23,male,undergraduate,computer engineering,yes,NA,no,NA,NA,yes,NA,yes,Spanish,2,12,English,1,12,NA,NA,NA,NA,NA,NA,yes,NA,yes,NA
1,brazilian-portuguese,L_balanced,mbrola,lab,297,6,test cswl,28,NA,NA,NA,NA,NA,NA,audio/pp3.wav,img/06.jpg,img/01.jpg,img/02.jpg,img/03.jpg,high,2,1,2.599343835,0.25,NA,333,23,male,undergraduate,computer engineering,yes,NA,no,NA,NA,yes,NA,yes,Spanish,2,12,English,1,12,NA,NA,NA,NA,NA,NA,yes,NA,yes,NA
1,brazilian-portuguese,L_balanced,mbrola,lab,297,6,test cswl,29,NA,NA,NA,NA,NA,NA,audio/pp2.wav,img/05.jpg,img/01.jpg,img/04.jpg,img/02.jpg,high,2,0,2.815940902,0.25,NA,333,23,male,undergraduate,computer engineering,yes,NA,no,NA,NA,yes,NA,yes,Spanish,2,12,English,1,12,NA,NA,NA,NA,NA,NA,yes,NA,yes,NA
1,brazilian-portuguese,L_balanced,mbrola,lab,297,6,test cswl,30,NA,NA,NA,NA,NA,NA,audio/p4.wav,img/01.jpg,img/05.jpg,img/06.jpg,img/03.jpg,low,1,0,2.300112098,0.25,NA,333,23,male,undergraduate,computer engineering,yes,NA,no,NA,NA,yes,NA,yes,Spanish,2,12,English,1,12,NA,NA,NA,NA,NA,NA,yes,NA,yes,NA
1,brazilian-portuguese,L_balanced,mbrola,lab,297,6,test cswl,31,NA,NA,NA,NA,NA,NA,audio/p5.wav,img/02.jpg,img/05.jpg,img/04.jpg,img/06.jpg,low,3,1,3.682249913,0.25,NA,333,23,male,undergraduate,computer engineering,yes,NA,no,NA,NA,yes,NA,yes,Spanish,2,12,English,1,12,NA,NA,NA,NA,NA,NA,yes,NA,yes,NA
1,brazilian-portuguese,L_balanced,mbrola,lab,297,6,test cswl,32,NA,NA,NA,NA,NA,NA,audio/p4.wav,img/01.jpg,img/03.jpg,img/05.jpg,img/04.jpg,low,3,0,2.633053526,0.25,NA,333,23,male,undergraduate,computer engineering,yes,NA,no,NA,NA,yes,NA,yes,Spanish,2,12,English,1,12,NA,NA,NA,NA,NA,NA,yes,NA,yes,NA
1,brazilian-portuguese,L_balanced,mbrola,lab,297,6,test cswl,33,NA,NA,NA,NA,NA,NA,audio/p6.wav,img/03.jpg,img/02.jpg,img/06.jpg,img/01.jpg,low,4,0,4.18214614,0.25,NA,333,23,male,undergraduate,computer engineering,yes,NA,no,NA,NA,yes,NA,yes,Spanish,2,12,English,1,12,NA,NA,NA,NA,NA,NA,yes,NA,yes,NA
1,brazilian-portuguese,L_balanced,mbrola,lab,297,6,test cswl,34,NA,NA,NA,NA,NA,NA,audio/p6.wav,img/03.jpg,img/01.jpg,img/05.jpg,img/06.jpg,low,2,0,1.632967429,0.25,NA,333,23,male,undergraduate,computer engineering,yes,NA,no,NA,NA,yes,NA,yes,Spanish,2,12,English,1,12,NA,NA,NA,NA,NA,NA,yes,NA,yes,NA
1,brazilian-portuguese,L_balanced,mbrola,lab,297,6,test cswl,35,NA,NA,NA,NA,NA,NA,audio/pp1.wav,img/04.jpg,img/01.jpg,img/06.jpg,img/05.jpg,high,2,1,4.632203956,0.25,NA,333,23,male,undergraduate,computer engineering,yes,NA,no,NA,NA,yes,NA,yes,Spanish,2,12,English,1,12,NA,NA,NA,NA,NA,NA,yes,NA,yes,NA
1,brazilian-portuguese,L_balanced,mbrola,lab,297,6,test cswl,36,NA,NA,NA,NA,NA,NA,audio/p5.wav,img/02.jpg,img/03.jpg,img/04.jpg,img/05.jpg,low,3,1,2.183138825,0.25,NA,333,23,male,undergraduate,computer engineering,yes,NA,no,NA,NA,yes,NA,yes,Spanish,2,12,English,1,12,NA,NA,NA,NA,NA,NA,yes,NA,yes,NA
1,brazilian-portuguese,L_balanced,mbrola,lab,297,6,test cswl,37,NA,NA,NA,NA,NA,NA,audio/pp3.wav,img/06.jpg,img/04.jpg,img/03.jpg,img/02.jpg,high,1,0,4.932225965,0.25,NA,333,23,male,undergraduate,computer engineering,yes,NA,no,NA,NA,yes,NA,yes,Spanish,2,12,English,1,12,NA,NA,NA,NA,NA,NA,yes,NA,yes,NA
1,brazilian-portuguese,L_balanced,mbrola,lab,297,6,self evaluation cswl,NA,NA,NA,NA,NA,NA,NA,NA,NA,NA,NA,NA,NA,2,NA,4.249030692,NA,NA,333,23,male,undergraduate,computer engineering,yes,NA,no,NA,NA,yes,NA,yes,Spanish,2,12,English,1,12,NA,NA,NA,NA,NA,NA,yes,NA,yes,NA
1,brazilian-portuguese,L_balanced,mbrola,lab,299,7,warm up ws,NA,NA,NA,NA,audio/tela.wav,audio/bafi.wav,NA,NA,NA,NA,NA,NA,NA,1,0,9.164314288,NA,NA,334,20,female,undergraduate,statistics,yes,NA,no,NA,NA,yes,NA,yes,English,4,5,NA,NA,NA,NA,NA,NA,NA,NA,NA,yes,NA,yes,NA
1,brazilian-portuguese,L_balanced,mbrola,lab,299,7,warm up ws,NA,NA,NA,NA,audio/pato.wav,audio/tibo.wav,NA,NA,NA,NA,NA,NA,NA,1,1,3.566046956,NA,NA,334,20,female,undergraduate,statistics,yes,NA,no,NA,NA,yes,NA,yes,English,4,5,NA,NA,NA,NA,NA,NA,NA,NA,NA,yes,NA,yes,NA
1,brazilian-portuguese,L_balanced,mbrola,lab,299,7,warm up ws,NA,NA,NA,NA,audio/cabo.wav,audio/guvi.wav,NA,NA,NA,NA,NA,NA,NA,2,1,1.183399398,NA,NA,334,20,female,undergraduate,statistics,yes,NA,no,NA,NA,yes,NA,yes,English,4,5,NA,NA,NA,NA,NA,NA,NA,NA,NA,yes,NA,yes,NA
1,brazilian-portuguese,L_balanced,mbrola,lab,299,7,warm up ws,NA,NA,NA,NA,audio/bola.wav,audio/fabu.wav,NA,NA,NA,NA,NA,NA,NA,1,1,0.800327626,NA,NA,334,20,female,undergraduate,statistics,yes,NA,no,NA,NA,yes,NA,yes,English,4,5,NA,NA,NA,NA,NA,NA,NA,NA,NA,yes,NA,yes,NA
1,brazilian-portuguese,L_balanced,mbrola,lab,299,7,test ws,5,6,NA,NA,audio/pp1.wav,audio/pp4.wav,part_word,NA,NA,NA,NA,NA,NA,2,1,2.632904709,0.5,NA,334,20,female,undergraduate,statistics,yes,NA,no,NA,NA,yes,NA,yes,English,4,5,NA,NA,NA,NA,NA,NA,NA,NA,NA,yes,NA,yes,NA
1,brazilian-portuguese,L_balanced,mbrola,lab,299,7,test ws,6,6,NA,NA,audio/pp3.wav,audio/pp5.wav,part_word,NA,NA,NA,NA,NA,NA,2,0,0.267043861,0.5,NA,334,20,female,undergraduate,statistics,yes,NA,no,NA,NA,yes,NA,yes,English,4,5,NA,NA,NA,NA,NA,NA,NA,NA,NA,yes,NA,yes,NA
1,brazilian-portuguese,L_balanced,mbrola,lab,299,7,test ws,7,6,NA,NA,audio/pp2.wav,audio/pp6.wav,part_word,NA,NA,NA,NA,NA,NA,1,0,4.482324949,0.5,NA,334,20,female,undergraduate,statistics,yes,NA,no,NA,NA,yes,NA,yes,English,4,5,NA,NA,NA,NA,NA,NA,NA,NA,NA,yes,NA,yes,NA
1,brazilian-portuguese,L_balanced,mbrola,lab,299,7,test ws,8,3,NA,NA,audio/pp1.wav,audio/pp4.wav,part_word,NA,NA,NA,NA,NA,NA,2,1,0.166777472,0.5,NA,334,20,female,undergraduate,statistics,yes,NA,no,NA,NA,yes,NA,yes,English,4,5,NA,NA,NA,NA,NA,NA,NA,NA,NA,yes,NA,yes,NA
1,brazilian-portuguese,L_balanced,mbrola,lab,299,7,test ws,9,3,NA,NA,audio/pp2.wav,audio/pp5.wav,part_word,NA,NA,NA,NA,NA,NA,1,0,3.33278862,0.5,NA,334,20,female,undergraduate,statistics,yes,NA,no,NA,NA,yes,NA,yes,English,4,5,NA,NA,NA,NA,NA,NA,NA,NA,NA,yes,NA,yes,NA
1,brazilian-portuguese,L_balanced,mbrola,lab,299,7,test ws,10,3,NA,NA,audio/pp3.wav,audio/pp6.wav,part_word,NA,NA,NA,NA,NA,NA,1,0,6.76499748,0.5,NA,334,20,female,undergraduate,statistics,yes,NA,no,NA,NA,yes,NA,yes,English,4,5,NA,NA,NA,NA,NA,NA,NA,NA,NA,yes,NA,yes,NA
1,brazilian-portuguese,L_balanced,mbrola,lab,299,7,test ws,11,2,NA,NA,audio/pp3.wav,audio/pp4.wav,part_word,NA,NA,NA,NA,NA,NA,1,1,5.048757347,0.5,NA,334,20,female,undergraduate,statistics,yes,NA,no,NA,NA,yes,NA,yes,English,4,5,NA,NA,NA,NA,NA,NA,NA,NA,NA,yes,NA,yes,NA
1,brazilian-portuguese,L_balanced,mbrola,lab,299,7,test ws,12,2,NA,NA,audio/pp2.wav,audio/pp5.wav,part_word,NA,NA,NA,NA,NA,NA,1,1,8.980752388,0.5,NA,334,20,female,undergraduate,statistics,yes,NA,no,NA,NA,yes,NA,yes,English,4,5,NA,NA,NA,NA,NA,NA,NA,NA,NA,yes,NA,yes,NA
1,brazilian-portuguese,L_balanced,mbrola,lab,299,7,test ws,13,2,NA,NA,audio/pp1.wav,audio/pp6.wav,part_word,NA,NA,NA,NA,NA,NA,2,1,2.516385871,0.5,NA,334,20,female,undergraduate,statistics,yes,NA,no,NA,NA,yes,NA,yes,English,4,5,NA,NA,NA,NA,NA,NA,NA,NA,NA,yes,NA,yes,NA
1,brazilian-portuguese,L_balanced,mbrola,lab,299,7,test ws,14,4,NA,NA,audio/pp2.wav,audio/pp4.wav,part_word,NA,NA,NA,NA,NA,NA,1,1,0.516686357,0.5,NA,334,20,female,undergraduate,statistics,yes,NA,no,NA,NA,yes,NA,yes,English,4,5,NA,NA,NA,NA,NA,NA,NA,NA,NA,yes,NA,yes,NA
1,brazilian-portuguese,L_balanced,mbrola,lab,299,7,test ws,15,4,NA,NA,audio/pp3.wav,audio/pp6.wav,part_word,NA,NA,NA,NA,NA,NA,1,0,6.914860522,0.5,NA,334,20,female,undergraduate,statistics,yes,NA,no,NA,NA,yes,NA,yes,English,4,5,NA,NA,NA,NA,NA,NA,NA,NA,NA,yes,NA,yes,NA
1,brazilian-portuguese,L_balanced,mbrola,lab,299,7,test ws,16,4,NA,NA,audio/pp1.wav,audio/pp5.wav,part_word,NA,NA,NA,NA,NA,NA,1,0,1.833209414,0.5,NA,334,20,female,undergraduate,statistics,yes,NA,no,NA,NA,yes,NA,yes,English,4,5,NA,NA,NA,NA,NA,NA,NA,NA,NA,yes,NA,yes,NA
1,brazilian-portuguese,L_balanced,mbrola,lab,299,7,test ws,17,1,NA,NA,audio/pp3.wav,audio/pp4.wav,part_word,NA,NA,NA,NA,NA,NA,1,1,3.882571153,0.5,NA,334,20,female,undergraduate,statistics,yes,NA,no,NA,NA,yes,NA,yes,English,4,5,NA,NA,NA,NA,NA,NA,NA,NA,NA,yes,NA,yes,NA
1,brazilian-portuguese,L_balanced,mbrola,lab,299,7,test ws,18,1,NA,NA,audio/pp2.wav,audio/pp6.wav,part_word,NA,NA,NA,NA,NA,NA,1,1,5.198750961,0.5,NA,334,20,female,undergraduate,statistics,yes,NA,no,NA,NA,yes,NA,yes,English,4,5,NA,NA,NA,NA,NA,NA,NA,NA,NA,yes,NA,yes,NA
1,brazilian-portuguese,L_balanced,mbrola,lab,299,7,test ws,19,1,NA,NA,audio/pp1.wav,audio/pp5.wav,part_word,NA,NA,NA,NA,NA,NA,1,0,0.850296608,0.5,NA,334,20,female,undergraduate,statistics,yes,NA,no,NA,NA,yes,NA,yes,English,4,5,NA,NA,NA,NA,NA,NA,NA,NA,NA,yes,NA,yes,NA
1,brazilian-portuguese,L_balanced,mbrola,lab,299,7,test ws,20,5,NA,NA,audio/pp2.wav,audio/pp5.wav,part_word,NA,NA,NA,NA,NA,NA,1,1,12.54635175,0.5,NA,334,20,female,undergraduate,statistics,yes,NA,no,NA,NA,yes,NA,yes,English,4,5,NA,NA,NA,NA,NA,NA,NA,NA,NA,yes,NA,yes,NA
1,brazilian-portuguese,L_balanced,mbrola,lab,299,7,test ws,21,5,NA,NA,audio/pp3.wav,audio/pp4.wav,part_word,NA,NA,NA,NA,NA,NA,1,1,4.599001727,0.5,NA,334,20,female,undergraduate,statistics,yes,NA,no,NA,NA,yes,NA,yes,English,4,5,NA,NA,NA,NA,NA,NA,NA,NA,NA,yes,NA,yes,NA
1,brazilian-portuguese,L_balanced,mbrola,lab,299,7,test ws,22,5,NA,NA,audio/pp1.wav,audio/pp6.wav,part_word,NA,NA,NA,NA,NA,NA,2,1,5.048932392,0.5,NA,334,20,female,undergraduate,statistics,yes,NA,no,NA,NA,yes,NA,yes,English,4,5,NA,NA,NA,NA,NA,NA,NA,NA,NA,yes,NA,yes,NA
1,brazilian-portuguese,L_balanced,mbrola,lab,299,7,self evaluation ws,NA,NA,NA,NA,NA,NA,NA,NA,NA,NA,NA,NA,NA,2,NA,6.714868277,NA,NA,334,20,female,undergraduate,statistics,yes,NA,no,NA,NA,yes,NA,yes,English,4,5,NA,NA,NA,NA,NA,NA,NA,NA,NA,yes,NA,yes,NA
1,brazilian-portuguese,L_balanced,mbrola,lab,299,7,warm up cswl,NA,NA,NA,NA,NA,NA,NA,audio/pato.wav,img/pato.jpg,img/bola.jpg,img/gato.jpg,img/casa.jpg,NA,4,1,2.0831963,NA,NA,334,20,female,undergraduate,statistics,yes,NA,no,NA,NA,yes,NA,yes,English,4,5,NA,NA,NA,NA,NA,NA,NA,NA,NA,yes,NA,yes,NA
1,brazilian-portuguese,L_balanced,mbrola,lab,299,7,warm up cswl,NA,NA,NA,NA,NA,NA,NA,audio/bola.wav,img/bola.jpg,img/casa.jpg,img/pato.jpg,img/gato.jpg,NA,2,1,2.049694725,NA,NA,334,20,female,undergraduate,statistics,yes,NA,no,NA,NA,yes,NA,yes,English,4,5,NA,NA,NA,NA,NA,NA,NA,NA,NA,yes,NA,yes,NA
1,brazilian-portuguese,L_balanced,mbrola,lab,299,7,test cswl,26,NA,NA,NA,NA,NA,NA,audio/p5.wav,img/02.jpg,img/05.jpg,img/04.jpg,img/06.jpg,low,1,0,15.34539932,0.25,NA,334,20,female,undergraduate,statistics,yes,NA,no,NA,NA,yes,NA,yes,English,4,5,NA,NA,NA,NA,NA,NA,NA,NA,NA,yes,NA,yes,NA
1,brazilian-portuguese,L_balanced,mbrola,lab,299,7,test cswl,27,NA,NA,NA,NA,NA,NA,audio/p6.wav,img/03.jpg,img/01.jpg,img/05.jpg,img/06.jpg,low,1,1,2.44991185,0.25,NA,334,20,female,undergraduate,statistics,yes,NA,no,NA,NA,yes,NA,yes,English,4,5,NA,NA,NA,NA,NA,NA,NA,NA,NA,yes,NA,yes,NA
1,brazilian-portuguese,L_balanced,mbrola,lab,299,7,test cswl,28,NA,NA,NA,NA,NA,NA,audio/p4.wav,img/01.jpg,img/05.jpg,img/06.jpg,img/03.jpg,low,4,1,5.648237455,0.25,NA,334,20,female,undergraduate,statistics,yes,NA,no,NA,NA,yes,NA,yes,English,4,5,NA,NA,NA,NA,NA,NA,NA,NA,NA,yes,NA,yes,NA
1,brazilian-portuguese,L_balanced,mbrola,lab,299,7,test cswl,29,NA,NA,NA,NA,NA,NA,audio/pp2.wav,img/05.jpg,img/01.jpg,img/04.jpg,img/02.jpg,high,2,0,6.065246421,0.25,NA,334,20,female,undergraduate,statistics,yes,NA,no,NA,NA,yes,NA,yes,English,4,5,NA,NA,NA,NA,NA,NA,NA,NA,NA,yes,NA,yes,NA
1,brazilian-portuguese,L_balanced,mbrola,lab,299,7,test cswl,30,NA,NA,NA,NA,NA,NA,audio/p4.wav,img/01.jpg,img/03.jpg,img/05.jpg,img/04.jpg,low,1,1,4.132486196,0.25,NA,334,20,female,undergraduate,statistics,yes,NA,no,NA,NA,yes,NA,yes,English,4,5,NA,NA,NA,NA,NA,NA,NA,NA,NA,yes,NA,yes,NA
1,brazilian-portuguese,L_balanced,mbrola,lab,299,7,test cswl,31,NA,NA,NA,NA,NA,NA,audio/pp3.wav,img/06.jpg,img/04.jpg,img/03.jpg,img/02.jpg,high,1,0,3.749238238,0.25,NA,334,20,female,undergraduate,statistics,yes,NA,no,NA,NA,yes,NA,yes,English,4,5,NA,NA,NA,NA,NA,NA,NA,NA,NA,yes,NA,yes,NA
1,brazilian-portuguese,L_balanced,mbrola,lab,299,7,test cswl,32,NA,NA,NA,NA,NA,NA,audio/p5.wav,img/02.jpg,img/03.jpg,img/04.jpg,img/05.jpg,low,4,0,2.349716734,0.25,NA,334,20,female,undergraduate,statistics,yes,NA,no,NA,NA,yes,NA,yes,English,4,5,NA,NA,NA,NA,NA,NA,NA,NA,NA,yes,NA,yes,NA
1,brazilian-portuguese,L_balanced,mbrola,lab,299,7,test cswl,33,NA,NA,NA,NA,NA,NA,audio/pp2.wav,img/05.jpg,img/02.jpg,img/03.jpg,img/04.jpg,high,1,0,6.814912295,0.25,NA,334,20,female,undergraduate,statistics,yes,NA,no,NA,NA,yes,NA,yes,English,4,5,NA,NA,NA,NA,NA,NA,NA,NA,NA,yes,NA,yes,NA
1,brazilian-portuguese,L_balanced,mbrola,lab,299,7,test cswl,34,NA,NA,NA,NA,NA,NA,audio/pp3.wav,img/06.jpg,img/01.jpg,img/02.jpg,img/03.jpg,high,2,1,3.532766611,0.25,NA,334,20,female,undergraduate,statistics,yes,NA,no,NA,NA,yes,NA,yes,English,4,5,NA,NA,NA,NA,NA,NA,NA,NA,NA,yes,NA,yes,NA
1,brazilian-portuguese,L_balanced,mbrola,lab,299,7,test cswl,35,NA,NA,NA,NA,NA,NA,audio/p6.wav,img/03.jpg,img/02.jpg,img/06.jpg,img/01.jpg,low,3,1,2.333182045,0.25,NA,334,20,female,undergraduate,statistics,yes,NA,no,NA,NA,yes,NA,yes,English,4,5,NA,NA,NA,NA,NA,NA,NA,NA,NA,yes,NA,yes,NA
1,brazilian-portuguese,L_balanced,mbrola,lab,299,7,test cswl,36,NA,NA,NA,NA,NA,NA,audio/pp1.wav,img/04.jpg,img/01.jpg,img/06.jpg,img/05.jpg,high,4,0,25.70820628,0.25,NA,334,20,female,undergraduate,statistics,yes,NA,no,NA,NA,yes,NA,yes,English,4,5,NA,NA,NA,NA,NA,NA,NA,NA,NA,yes,NA,yes,NA
1,brazilian-portuguese,L_balanced,mbrola,lab,299,7,test cswl,37,NA,NA,NA,NA,NA,NA,audio/pp1.wav,img/04.jpg,img/02.jpg,img/06.jpg,img/01.jpg,high,1,1,11.94650901,0.25,NA,334,20,female,undergraduate,statistics,yes,NA,no,NA,NA,yes,NA,yes,English,4,5,NA,NA,NA,NA,NA,NA,NA,NA,NA,yes,NA,yes,NA
1,brazilian-portuguese,L_balanced,mbrola,lab,299,7,self evaluation cswl,NA,NA,NA,NA,NA,NA,NA,NA,NA,NA,NA,NA,NA,1,NA,1.133370547,NA,NA,334,20,female,undergraduate,statistics,yes,NA,no,NA,NA,yes,NA,yes,English,4,5,NA,NA,NA,NA,NA,NA,NA,NA,NA,yes,NA,yes,NA
1,brazilian-portuguese,L_balanced,mbrola,lab,301,8,warm up ws,NA,NA,NA,NA,audio/pato.wav,audio/tibo.wav,NA,NA,NA,NA,NA,NA,NA,1,1,2.283164027,NA,NA,335,19,male,undergraduate,math,yes,NA,no,NA,NA,yes,NA,yes,English,4,11,NA,NA,NA,NA,NA,NA,NA,NA,NA,yes,NA,yes,NA
1,brazilian-portuguese,L_balanced,mbrola,lab,301,8,warm up ws,NA,NA,NA,NA,audio/bola.wav,audio/fabu.wav,NA,NA,NA,NA,NA,NA,NA,1,1,1.633545593,NA,NA,335,19,male,undergraduate,math,yes,NA,no,NA,NA,yes,NA,yes,English,4,11,NA,NA,NA,NA,NA,NA,NA,NA,NA,yes,NA,yes,NA
1,brazilian-portuguese,L_balanced,mbrola,lab,301,8,warm up ws,NA,NA,NA,NA,audio/tela.wav,audio/bafi.wav,NA,NA,NA,NA,NA,NA,NA,2,1,5.898523116,NA,NA,335,19,male,undergraduate,math,yes,NA,no,NA,NA,yes,NA,yes,English,4,11,NA,NA,NA,NA,NA,NA,NA,NA,NA,yes,NA,yes,NA
1,brazilian-portuguese,L_balanced,mbrola,lab,301,8,warm up ws,NA,NA,NA,NA,audio/cabo.wav,audio/guvi.wav,NA,NA,NA,NA,NA,NA,NA,2,1,0.667002123,NA,NA,335,19,male,undergraduate,math,yes,NA,no,NA,NA,yes,NA,yes,English,4,11,NA,NA,NA,NA,NA,NA,NA,NA,NA,yes,NA,yes,NA
1,brazilian-portuguese,L_balanced,mbrola,lab,301,8,test ws,5,4,NA,NA,audio/pp2.wav,audio/pp4.wav,part_word,NA,NA,NA,NA,NA,NA,1,1,8.714212568,0.5,NA,335,19,male,undergraduate,math,yes,NA,no,NA,NA,yes,NA,yes,English,4,11,NA,NA,NA,NA,NA,NA,NA,NA,NA,yes,NA,yes,NA
1,brazilian-portuguese,L_balanced,mbrola,lab,301,8,test ws,6,4,NA,NA,audio/pp3.wav,audio/pp6.wav,part_word,NA,NA,NA,NA,NA,NA,2,1,1.40004379,0.5,NA,335,19,male,undergraduate,math,yes,NA,no,NA,NA,yes,NA,yes,English,4,11,NA,NA,NA,NA,NA,NA,NA,NA,NA,yes,NA,yes,NA
1,brazilian-portuguese,L_balanced,mbrola,lab,301,8,test ws,7,4,NA,NA,audio/pp1.wav,audio/pp5.wav,part_word,NA,NA,NA,NA,NA,NA,2,1,0.500368907,0.5,NA,335,19,male,undergraduate,math,yes,NA,no,NA,NA,yes,NA,yes,English,4,11,NA,NA,NA,NA,NA,NA,NA,NA,NA,yes,NA,yes,NA
1,brazilian-portuguese,L_balanced,mbrola,lab,301,8,test ws,8,2,NA,NA,audio/pp1.wav,audio/pp6.wav,part_word,NA,NA,NA,NA,NA,NA,2,1,0.283647541,0.5,NA,335,19,male,undergraduate,math,yes,NA,no,NA,NA,yes,NA,yes,English,4,11,NA,NA,NA,NA,NA,NA,NA,NA,NA,yes,NA,yes,NA
1,brazilian-portuguese,L_balanced,mbrola,lab,301,8,test ws,9,2,NA,NA,audio/pp3.wav,audio/pp4.wav,part_word,NA,NA,NA,NA,NA,NA,1,1,0.317122888,0.5,NA,335,19,male,undergraduate,math,yes,NA,no,NA,NA,yes,NA,yes,English,4,11,NA,NA,NA,NA,NA,NA,NA,NA,NA,yes,NA,yes,NA
1,brazilian-portuguese,L_balanced,mbrola,lab,301,8,test ws,10,2,NA,NA,audio/pp2.wav,audio/pp5.wav,part_word,NA,NA,NA,NA,NA,NA,1,1,5.482035867,0.5,NA,335,19,male,undergraduate,math,yes,NA,no,NA,NA,yes,NA,yes,English,4,11,NA,NA,NA,NA,NA,NA,NA,NA,NA,yes,NA,yes,NA
1,brazilian-portuguese,L_balanced,mbrola,lab,301,8,test ws,11,1,NA,NA,audio/pp2.wav,audio/pp6.wav,part_word,NA,NA,NA,NA,NA,NA,1,1,4.93227158,0.5,NA,335,19,male,undergraduate,math,yes,NA,no,NA,NA,yes,NA,yes,English,4,11,NA,NA,NA,NA,NA,NA,NA,NA,NA,yes,NA,yes,NA
1,brazilian-portuguese,L_balanced,mbrola,lab,301,8,test ws,12,1,NA,NA,audio/pp1.wav,audio/pp5.wav,part_word,NA,NA,NA,NA,NA,NA,2,1,0.250417943,0.5,NA,335,19,male,undergraduate,math,yes,NA,no,NA,NA,yes,NA,yes,English,4,11,NA,NA,NA,NA,NA,NA,NA,NA,NA,yes,NA,yes,NA
1,brazilian-portuguese,L_balanced,mbrola,lab,301,8,test ws,13,1,NA,NA,audio/pp3.wav,audio/pp4.wav,part_word,NA,NA,NA,NA,NA,NA,1,1,0.200462075,0.5,NA,335,19,male,undergraduate,math,yes,NA,no,NA,NA,yes,NA,yes,English,4,11,NA,NA,NA,NA,NA,NA,NA,NA,NA,yes,NA,yes,NA
1,brazilian-portuguese,L_balanced,mbrola,lab,301,8,test ws,14,3,NA,NA,audio/pp1.wav,audio/pp4.wav,part_word,NA,NA,NA,NA,NA,NA,2,1,0.350391258,0.5,NA,335,19,male,undergraduate,math,yes,NA,no,NA,NA,yes,NA,yes,English,4,11,NA,NA,NA,NA,NA,NA,NA,NA,NA,yes,NA,yes,NA
1,brazilian-portuguese,L_balanced,mbrola,lab,301,8,test ws,15,3,NA,NA,audio/pp3.wav,audio/pp6.wav,part_word,NA,NA,NA,NA,NA,NA,2,1,0.300471882,0.5,NA,335,19,male,undergraduate,math,yes,NA,no,NA,NA,yes,NA,yes,English,4,11,NA,NA,NA,NA,NA,NA,NA,NA,NA,yes,NA,yes,NA
1,brazilian-portuguese,L_balanced,mbrola,lab,301,8,test ws,16,3,NA,NA,audio/pp2.wav,audio/pp5.wav,part_word,NA,NA,NA,NA,NA,NA,2,1,7.314737819,0.5,NA,335,19,male,undergraduate,math,yes,NA,no,NA,NA,yes,NA,yes,English,4,11,NA,NA,NA,NA,NA,NA,NA,NA,NA,yes,NA,yes,NA
1,brazilian-portuguese,L_balanced,mbrola,lab,301,8,test ws,17,5,NA,NA,audio/pp2.wav,audio/pp5.wav,part_word,NA,NA,NA,NA,NA,NA,1,1,0.983736718,0.5,NA,335,19,male,undergraduate,math,yes,NA,no,NA,NA,yes,NA,yes,English,4,11,NA,NA,NA,NA,NA,NA,NA,NA,NA,yes,NA,yes,NA
1,brazilian-portuguese,L_balanced,mbrola,lab,301,8,test ws,18,5,NA,NA,audio/pp3.wav,audio/pp4.wav,part_word,NA,NA,NA,NA,NA,NA,1,1,0.233767507,0.5,NA,335,19,male,undergraduate,math,yes,NA,no,NA,NA,yes,NA,yes,English,4,11,NA,NA,NA,NA,NA,NA,NA,NA,NA,yes,NA,yes,NA
1,brazilian-portuguese,L_balanced,mbrola,lab,301,8,test ws,19,5,NA,NA,audio/pp1.wav,audio/pp6.wav,part_word,NA,NA,NA,NA,NA,NA,2,1,0.350070246,0.5,NA,335,19,male,undergraduate,math,yes,NA,no,NA,NA,yes,NA,yes,English,4,11,NA,NA,NA,NA,NA,NA,NA,NA,NA,yes,NA,yes,NA
1,brazilian-portuguese,L_balanced,mbrola,lab,301,8,test ws,20,6,NA,NA,audio/pp2.wav,audio/pp6.wav,part_word,NA,NA,NA,NA,NA,NA,2,1,9.347246138,0.5,NA,335,19,male,undergraduate,math,yes,NA,no,NA,NA,yes,NA,yes,English,4,11,NA,NA,NA,NA,NA,NA,NA,NA,NA,yes,NA,yes,NA
1,brazilian-portuguese,L_balanced,mbrola,lab,301,8,test ws,21,6,NA,NA,audio/pp3.wav,audio/pp5.wav,part_word,NA,NA,NA,NA,NA,NA,1,1,0.283776402,0.5,NA,335,19,male,undergraduate,math,yes,NA,no,NA,NA,yes,NA,yes,English,4,11,NA,NA,NA,NA,NA,NA,NA,NA,NA,yes,NA,yes,NA
1,brazilian-portuguese,L_balanced,mbrola,lab,301,8,test ws,22,6,NA,NA,audio/pp1.wav,audio/pp4.wav,part_word,NA,NA,NA,NA,NA,NA,2,1,1.533302582,0.5,NA,335,19,male,undergraduate,math,yes,NA,no,NA,NA,yes,NA,yes,English,4,11,NA,NA,NA,NA,NA,NA,NA,NA,NA,yes,NA,yes,NA
1,brazilian-portuguese,L_balanced,mbrola,lab,301,8,self evaluation ws,NA,NA,NA,NA,NA,NA,NA,NA,NA,NA,NA,NA,NA,3,NA,4.249383064,NA,NA,335,19,male,undergraduate,math,yes,NA,no,NA,NA,yes,NA,yes,English,4,11,NA,NA,NA,NA,NA,NA,NA,NA,NA,yes,NA,yes,NA
1,brazilian-portuguese,L_balanced,mbrola,lab,301,8,warm up cswl,NA,NA,NA,NA,NA,NA,NA,audio/bola.wav,img/bola.jpg,img/casa.jpg,img/pato.jpg,img/gato.jpg,NA,2,1,2.016657278,NA,NA,335,19,male,undergraduate,math,yes,NA,no,NA,NA,yes,NA,yes,English,4,11,NA,NA,NA,NA,NA,NA,NA,NA,NA,yes,NA,yes,NA
1,brazilian-portuguese,L_balanced,mbrola,lab,301,8,warm up cswl,NA,NA,NA,NA,NA,NA,NA,audio/pato.wav,img/pato.jpg,img/bola.jpg,img/gato.jpg,img/casa.jpg,NA,4,1,3.049471214,NA,NA,335,19,male,undergraduate,math,yes,NA,no,NA,NA,yes,NA,yes,English,4,11,NA,NA,NA,NA,NA,NA,NA,NA,NA,yes,NA,yes,NA
1,brazilian-portuguese,L_balanced,mbrola,lab,301,8,test cswl,26,NA,NA,NA,NA,NA,NA,audio/pp1.wav,img/04.jpg,img/01.jpg,img/06.jpg,img/05.jpg,high,2,1,4.682296097,0.25,NA,335,19,male,undergraduate,math,yes,NA,no,NA,NA,yes,NA,yes,English,4,11,NA,NA,NA,NA,NA,NA,NA,NA,NA,yes,NA,yes,NA
1,brazilian-portuguese,L_balanced,mbrola,lab,301,8,test cswl,27,NA,NA,NA,NA,NA,NA,audio/p5.wav,img/02.jpg,img/03.jpg,img/04.jpg,img/05.jpg,low,3,1,2.61630502,0.25,NA,335,19,male,undergraduate,math,yes,NA,no,NA,NA,yes,NA,yes,English,4,11,NA,NA,NA,NA,NA,NA,NA,NA,NA,yes,NA,yes,NA
1,brazilian-portuguese,L_balanced,mbrola,lab,301,8,test cswl,28,NA,NA,NA,NA,NA,NA,audio/pp2.wav,img/05.jpg,img/01.jpg,img/04.jpg,img/02.jpg,high,4,1,3.249079727,0.25,NA,335,19,male,undergraduate,math,yes,NA,no,NA,NA,yes,NA,yes,English,4,11,NA,NA,NA,NA,NA,NA,NA,NA,NA,yes,NA,yes,NA
1,brazilian-portuguese,L_balanced,mbrola,lab,301,8,test cswl,29,NA,NA,NA,NA,NA,NA,audio/pp1.wav,img/04.jpg,img/02.jpg,img/06.jpg,img/01.jpg,high,1,1,4.282690777,0.25,NA,335,19,male,undergraduate,math,yes,NA,no,NA,NA,yes,NA,yes,English,4,11,NA,NA,NA,NA,NA,NA,NA,NA,NA,yes,NA,yes,NA
1,brazilian-portuguese,L_balanced,mbrola,lab,301,8,test cswl,30,NA,NA,NA,NA,NA,NA,audio/p5.wav,img/02.jpg,img/05.jpg,img/04.jpg,img/06.jpg,low,3,1,3.748932621,0.25,NA,335,19,male,undergraduate,math,yes,NA,no,NA,NA,yes,NA,yes,English,4,11,NA,NA,NA,NA,NA,NA,NA,NA,NA,yes,NA,yes,NA
1,brazilian-portuguese,L_balanced,mbrola,lab,301,8,test cswl,31,NA,NA,NA,NA,NA,NA,audio/p6.wav,img/03.jpg,img/01.jpg,img/05.jpg,img/06.jpg,low,1,1,2.099677962,0.25,NA,335,19,male,undergraduate,math,yes,NA,no,NA,NA,yes,NA,yes,English,4,11,NA,NA,NA,NA,NA,NA,NA,NA,NA,yes,NA,yes,NA
1,brazilian-portuguese,L_balanced,mbrola,lab,301,8,test cswl,32,NA,NA,NA,NA,NA,NA,audio/pp2.wav,img/05.jpg,img/02.jpg,img/03.jpg,img/04.jpg,high,2,1,4.432320045,0.25,NA,335,19,male,undergraduate,math,yes,NA,no,NA,NA,yes,NA,yes,English,4,11,NA,NA,NA,NA,NA,NA,NA,NA,NA,yes,NA,yes,NA
1,brazilian-portuguese,L_balanced,mbrola,lab,301,8,test cswl,33,NA,NA,NA,NA,NA,NA,audio/p4.wav,img/01.jpg,img/05.jpg,img/06.jpg,img/03.jpg,low,4,1,1.466372985,0.25,NA,335,19,male,undergraduate,math,yes,NA,no,NA,NA,yes,NA,yes,English,4,11,NA,NA,NA,NA,NA,NA,NA,NA,NA,yes,NA,yes,NA
1,brazilian-portuguese,L_balanced,mbrola,lab,301,8,test cswl,34,NA,NA,NA,NA,NA,NA,audio/pp3.wav,img/06.jpg,img/04.jpg,img/03.jpg,img/02.jpg,high,2,1,1.483347284,0.25,NA,335,19,male,undergraduate,math,yes,NA,no,NA,NA,yes,NA,yes,English,4,11,NA,NA,NA,NA,NA,NA,NA,NA,NA,yes,NA,yes,NA
1,brazilian-portuguese,L_balanced,mbrola,lab,301,8,test cswl,35,NA,NA,NA,NA,NA,NA,audio/p6.wav,img/03.jpg,img/02.jpg,img/06.jpg,img/01.jpg,low,3,1,2.150330021,0.25,NA,335,19,male,undergraduate,math,yes,NA,no,NA,NA,yes,NA,yes,English,4,11,NA,NA,NA,NA,NA,NA,NA,NA,NA,yes,NA,yes,NA
1,brazilian-portuguese,L_balanced,mbrola,lab,301,8,test cswl,36,NA,NA,NA,NA,NA,NA,audio/p4.wav,img/01.jpg,img/03.jpg,img/05.jpg,img/04.jpg,low,1,1,2.61646353,0.25,NA,335,19,male,undergraduate,math,yes,NA,no,NA,NA,yes,NA,yes,English,4,11,NA,NA,NA,NA,NA,NA,NA,NA,NA,yes,NA,yes,NA
1,brazilian-portuguese,L_balanced,mbrola,lab,301,8,test cswl,37,NA,NA,NA,NA,NA,NA,audio/pp3.wav,img/06.jpg,img/01.jpg,img/02.jpg,img/03.jpg,high,2,1,1.833285248,0.25,NA,335,19,male,undergraduate,math,yes,NA,no,NA,NA,yes,NA,yes,English,4,11,NA,NA,NA,NA,NA,NA,NA,NA,NA,yes,NA,yes,NA
1,brazilian-portuguese,L_balanced,mbrola,lab,301,8,self evaluation cswl,NA,NA,NA,NA,NA,NA,NA,NA,NA,NA,NA,NA,NA,4,NA,2.416358959,NA,NA,335,19,male,undergraduate,math,yes,NA,no,NA,NA,yes,NA,yes,English,4,11,NA,NA,NA,NA,NA,NA,NA,NA,NA,yes,NA,yes,NA
1,brazilian-portuguese,L_balanced,mbrola,lab,302,9,warm up ws,NA,NA,NA,NA,audio/tela.wav,audio/bafi.wav,NA,NA,NA,NA,NA,NA,NA,2,1,4.282537968,NA,NA,336,24,male,undergraduate,math,yes,NA,no,NA,NA,yes,NA,no,NA,NA,NA,NA,NA,NA,NA,NA,NA,NA,NA,NA,yes,NA,yes,NA
1,brazilian-portuguese,L_balanced,mbrola,lab,302,9,warm up ws,NA,NA,NA,NA,audio/pato.wav,audio/tibo.wav,NA,NA,NA,NA,NA,NA,NA,1,1,0.850151212,NA,NA,336,24,male,undergraduate,math,yes,NA,no,NA,NA,yes,NA,no,NA,NA,NA,NA,NA,NA,NA,NA,NA,NA,NA,NA,yes,NA,yes,NA
1,brazilian-portuguese,L_balanced,mbrola,lab,302,9,warm up ws,NA,NA,NA,NA,audio/bola.wav,audio/fabu.wav,NA,NA,NA,NA,NA,NA,NA,1,1,0.766912149,NA,NA,336,24,male,undergraduate,math,yes,NA,no,NA,NA,yes,NA,no,NA,NA,NA,NA,NA,NA,NA,NA,NA,NA,NA,NA,yes,NA,yes,NA
1,brazilian-portuguese,L_balanced,mbrola,lab,302,9,warm up ws,NA,NA,NA,NA,audio/cabo.wav,audio/guvi.wav,NA,NA,NA,NA,NA,NA,NA,2,1,0.817668551,NA,NA,336,24,male,undergraduate,math,yes,NA,no,NA,NA,yes,NA,no,NA,NA,NA,NA,NA,NA,NA,NA,NA,NA,NA,NA,yes,NA,yes,NA
1,brazilian-portuguese,L_balanced,mbrola,lab,302,9,test ws,5,6,NA,NA,audio/pp3.wav,audio/pp5.wav,part_word,NA,NA,NA,NA,NA,NA,1,1,0.416636637,0.5,NA,336,24,male,undergraduate,math,yes,NA,no,NA,NA,yes,NA,no,NA,NA,NA,NA,NA,NA,NA,NA,NA,NA,NA,NA,yes,NA,yes,NA
1,brazilian-portuguese,L_balanced,mbrola,lab,302,9,test ws,6,6,NA,NA,audio/pp2.wav,audio/pp6.wav,part_word,NA,NA,NA,NA,NA,NA,1,0,5.215374028,0.5,NA,336,24,male,undergraduate,math,yes,NA,no,NA,NA,yes,NA,no,NA,NA,NA,NA,NA,NA,NA,NA,NA,NA,NA,NA,yes,NA,yes,NA
1,brazilian-portuguese,L_balanced,mbrola,lab,302,9,test ws,7,6,NA,NA,audio/pp1.wav,audio/pp4.wav,part_word,NA,NA,NA,NA,NA,NA,2,1,0.500238906,0.5,NA,336,24,male,undergraduate,math,yes,NA,no,NA,NA,yes,NA,no,NA,NA,NA,NA,NA,NA,NA,NA,NA,NA,NA,NA,yes,NA,yes,NA
1,brazilian-portuguese,L_balanced,mbrola,lab,302,9,test ws,8,2,NA,NA,audio/pp1.wav,audio/pp6.wav,part_word,NA,NA,NA,NA,NA,NA,2,1,0.517048992,0.5,NA,336,24,male,undergraduate,math,yes,NA,no,NA,NA,yes,NA,no,NA,NA,NA,NA,NA,NA,NA,NA,NA,NA,NA,NA,yes,NA,yes,NA
1,brazilian-portuguese,L_balanced,mbrola,lab,302,9,test ws,9,2,NA,NA,audio/pp3.wav,audio/pp4.wav,part_word,NA,NA,NA,NA,NA,NA,1,1,0.300446224,0.5,NA,336,24,male,undergraduate,math,yes,NA,no,NA,NA,yes,NA,no,NA,NA,NA,NA,NA,NA,NA,NA,NA,NA,NA,NA,yes,NA,yes,NA
1,brazilian-portuguese,L_balanced,mbrola,lab,302,9,test ws,10,2,NA,NA,audio/pp2.wav,audio/pp5.wav,part_word,NA,NA,NA,NA,NA,NA,1,1,5.448628372,0.5,NA,336,24,male,undergraduate,math,yes,NA,no,NA,NA,yes,NA,no,NA,NA,NA,NA,NA,NA,NA,NA,NA,NA,NA,NA,yes,NA,yes,NA
1,brazilian-portuguese,L_balanced,mbrola,lab,302,9,test ws,11,4,NA,NA,audio/pp3.wav,audio/pp6.wav,part_word,NA,NA,NA,NA,NA,NA,2,1,0.400395022,0.5,NA,336,24,male,undergraduate,math,yes,NA,no,NA,NA,yes,NA,no,NA,NA,NA,NA,NA,NA,NA,NA,NA,NA,NA,NA,yes,NA,yes,NA
1,brazilian-portuguese,L_balanced,mbrola,lab,302,9,test ws,12,4,NA,NA,audio/pp2.wav,audio/pp4.wav,part_word,NA,NA,NA,NA,NA,NA,1,1,12.8629917,0.5,NA,336,24,male,undergraduate,math,yes,NA,no,NA,NA,yes,NA,no,NA,NA,NA,NA,NA,NA,NA,NA,NA,NA,NA,NA,yes,NA,yes,NA
1,brazilian-portuguese,L_balanced,mbrola,lab,302,9,test ws,13,4,NA,NA,audio/pp1.wav,audio/pp5.wav,part_word,NA,NA,NA,NA,NA,NA,2,1,0.43365655,0.5,NA,336,24,male,undergraduate,math,yes,NA,no,NA,NA,yes,NA,no,NA,NA,NA,NA,NA,NA,NA,NA,NA,NA,NA,NA,yes,NA,yes,NA
1,brazilian-portuguese,L_balanced,mbrola,lab,302,9,test ws,14,3,NA,NA,audio/pp1.wav,audio/pp4.wav,part_word,NA,NA,NA,NA,NA,NA,2,1,0.583612532,0.5,NA,336,24,male,undergraduate,math,yes,NA,no,NA,NA,yes,NA,no,NA,NA,NA,NA,NA,NA,NA,NA,NA,NA,NA,NA,yes,NA,yes,NA
1,brazilian-portuguese,L_balanced,mbrola,lab,302,9,test ws,15,3,NA,NA,audio/pp3.wav,audio/pp6.wav,part_word,NA,NA,NA,NA,NA,NA,2,1,0.450432996,0.5,NA,336,24,male,undergraduate,math,yes,NA,no,NA,NA,yes,NA,no,NA,NA,NA,NA,NA,NA,NA,NA,NA,NA,NA,NA,yes,NA,yes,NA
1,brazilian-portuguese,L_balanced,mbrola,lab,302,9,test ws,16,3,NA,NA,audio/pp2.wav,audio/pp5.wav,part_word,NA,NA,NA,NA,NA,NA,2,1,1.316728892,0.5,NA,336,24,male,undergraduate,math,yes,NA,no,NA,NA,yes,NA,no,NA,NA,NA,NA,NA,NA,NA,NA,NA,NA,NA,NA,yes,NA,yes,NA
1,brazilian-portuguese,L_balanced,mbrola,lab,302,9,test ws,17,1,NA,NA,audio/pp3.wav,audio/pp4.wav,part_word,NA,NA,NA,NA,NA,NA,1,1,0.550335039,0.5,NA,336,24,male,undergraduate,math,yes,NA,no,NA,NA,yes,NA,no,NA,NA,NA,NA,NA,NA,NA,NA,NA,NA,NA,NA,yes,NA,yes,NA
1,brazilian-portuguese,L_balanced,mbrola,lab,302,9,test ws,18,1,NA,NA,audio/pp1.wav,audio/pp5.wav,part_word,NA,NA,NA,NA,NA,NA,2,1,0.667012957,0.5,NA,336,24,male,undergraduate,math,yes,NA,no,NA,NA,yes,NA,no,NA,NA,NA,NA,NA,NA,NA,NA,NA,NA,NA,NA,yes,NA,yes,NA
1,brazilian-portuguese,L_balanced,mbrola,lab,302,9,test ws,19,1,NA,NA,audio/pp2.wav,audio/pp6.wav,part_word,NA,NA,NA,NA,NA,NA,1,1,0.633645375,0.5,NA,336,24,male,undergraduate,math,yes,NA,no,NA,NA,yes,NA,no,NA,NA,NA,NA,NA,NA,NA,NA,NA,NA,NA,NA,yes,NA,yes,NA
1,brazilian-portuguese,L_balanced,mbrola,lab,302,9,test ws,20,5,NA,NA,audio/pp1.wav,audio/pp6.wav,part_word,NA,NA,NA,NA,NA,NA,2,1,0.500245748,0.5,NA,336,24,male,undergraduate,math,yes,NA,no,NA,NA,yes,NA,no,NA,NA,NA,NA,NA,NA,NA,NA,NA,NA,NA,NA,yes,NA,yes,NA
1,brazilian-portuguese,L_balanced,mbrola,lab,302,9,test ws,21,5,NA,NA,audio/pp3.wav,audio/pp4.wav,part_word,NA,NA,NA,NA,NA,NA,1,1,0.383943579,0.5,NA,336,24,male,undergraduate,math,yes,NA,no,NA,NA,yes,NA,no,NA,NA,NA,NA,NA,NA,NA,NA,NA,NA,NA,NA,yes,NA,yes,NA
1,brazilian-portuguese,L_balanced,mbrola,lab,302,9,test ws,22,5,NA,NA,audio/pp2.wav,audio/pp5.wav,part_word,NA,NA,NA,NA,NA,NA,1,1,0.317023106,0.5,NA,336,24,male,undergraduate,math,yes,NA,no,NA,NA,yes,NA,no,NA,NA,NA,NA,NA,NA,NA,NA,NA,NA,NA,NA,yes,NA,yes,NA
1,brazilian-portuguese,L_balanced,mbrola,lab,302,9,self evaluation ws,NA,NA,NA,NA,NA,NA,NA,NA,NA,NA,NA,NA,NA,3,NA,6.098606021,NA,NA,336,24,male,undergraduate,math,yes,NA,no,NA,NA,yes,NA,no,NA,NA,NA,NA,NA,NA,NA,NA,NA,NA,NA,NA,yes,NA,yes,NA
1,brazilian-portuguese,L_balanced,mbrola,lab,302,9,warm up cswl,NA,NA,NA,NA,NA,NA,NA,audio/pato.wav,img/pato.jpg,img/bola.jpg,img/gato.jpg,img/casa.jpg,NA,4,1,3.615604267,NA,NA,336,24,male,undergraduate,math,yes,NA,no,NA,NA,yes,NA,no,NA,NA,NA,NA,NA,NA,NA,NA,NA,NA,NA,NA,yes,NA,yes,NA
1,brazilian-portuguese,L_balanced,mbrola,lab,302,9,warm up cswl,NA,NA,NA,NA,NA,NA,NA,audio/bola.wav,img/bola.jpg,img/casa.jpg,img/pato.jpg,img/gato.jpg,NA,2,1,1.699890183,NA,NA,336,24,male,undergraduate,math,yes,NA,no,NA,NA,yes,NA,no,NA,NA,NA,NA,NA,NA,NA,NA,NA,NA,NA,NA,yes,NA,yes,NA
1,brazilian-portuguese,L_balanced,mbrola,lab,302,9,test cswl,26,NA,NA,NA,NA,NA,NA,audio/pp1.wav,img/04.jpg,img/01.jpg,img/06.jpg,img/05.jpg,high,2,1,3.74933916,0.25,NA,336,24,male,undergraduate,math,yes,NA,no,NA,NA,yes,NA,no,NA,NA,NA,NA,NA,NA,NA,NA,NA,NA,NA,NA,yes,NA,yes,NA
1,brazilian-portuguese,L_balanced,mbrola,lab,302,9,test cswl,27,NA,NA,NA,NA,NA,NA,audio/p6.wav,img/03.jpg,img/01.jpg,img/05.jpg,img/06.jpg,low,1,1,5.831961287,0.25,NA,336,24,male,undergraduate,math,yes,NA,no,NA,NA,yes,NA,no,NA,NA,NA,NA,NA,NA,NA,NA,NA,NA,NA,NA,yes,NA,yes,NA
1,brazilian-portuguese,L_balanced,mbrola,lab,302,9,test cswl,28,NA,NA,NA,NA,NA,NA,audio/pp2.wav,img/05.jpg,img/01.jpg,img/04.jpg,img/02.jpg,high,4,1,4.732305562,0.25,NA,336,24,male,undergraduate,math,yes,NA,no,NA,NA,yes,NA,no,NA,NA,NA,NA,NA,NA,NA,NA,NA,NA,NA,NA,yes,NA,yes,NA
1,brazilian-portuguese,L_balanced,mbrola,lab,302,9,test cswl,29,NA,NA,NA,NA,NA,NA,audio/p5.wav,img/02.jpg,img/05.jpg,img/04.jpg,img/06.jpg,low,3,1,2.966148334,0.25,NA,336,24,male,undergraduate,math,yes,NA,no,NA,NA,yes,NA,no,NA,NA,NA,NA,NA,NA,NA,NA,NA,NA,NA,NA,yes,NA,yes,NA
1,brazilian-portuguese,L_balanced,mbrola,lab,302,9,test cswl,30,NA,NA,NA,NA,NA,NA,audio/pp3.wav,img/06.jpg,img/01.jpg,img/02.jpg,img/03.jpg,high,2,1,4.115653302,0.25,NA,336,24,male,undergraduate,math,yes,NA,no,NA,NA,yes,NA,no,NA,NA,NA,NA,NA,NA,NA,NA,NA,NA,NA,NA,yes,NA,yes,NA
1,brazilian-portuguese,L_balanced,mbrola,lab,302,9,test cswl,31,NA,NA,NA,NA,NA,NA,audio/p4.wav,img/01.jpg,img/05.jpg,img/06.jpg,img/03.jpg,low,4,1,2.783134948,0.25,NA,336,24,male,undergraduate,math,yes,NA,no,NA,NA,yes,NA,no,NA,NA,NA,NA,NA,NA,NA,NA,NA,NA,NA,NA,yes,NA,yes,NA
1,brazilian-portuguese,L_balanced,mbrola,lab,302,9,test cswl,32,NA,NA,NA,NA,NA,NA,audio/pp2.wav,img/05.jpg,img/02.jpg,img/03.jpg,img/04.jpg,high,3,0,13.52929934,0.25,NA,336,24,male,undergraduate,math,yes,NA,no,NA,NA,yes,NA,no,NA,NA,NA,NA,NA,NA,NA,NA,NA,NA,NA,NA,yes,NA,yes,NA
1,brazilian-portuguese,L_balanced,mbrola,lab,302,9,test cswl,33,NA,NA,NA,NA,NA,NA,audio/p5.wav,img/02.jpg,img/03.jpg,img/04.jpg,img/05.jpg,low,3,1,2.133075763,0.25,NA,336,24,male,undergraduate,math,yes,NA,no,NA,NA,yes,NA,no,NA,NA,NA,NA,NA,NA,NA,NA,NA,NA,NA,NA,yes,NA,yes,NA
1,brazilian-portuguese,L_balanced,mbrola,lab,302,9,test cswl,34,NA,NA,NA,NA,NA,NA,audio/pp3.wav,img/06.jpg,img/04.jpg,img/03.jpg,img/02.jpg,high,2,1,1.949999658,0.25,NA,336,24,male,undergraduate,math,yes,NA,no,NA,NA,yes,NA,no,NA,NA,NA,NA,NA,NA,NA,NA,NA,NA,NA,NA,yes,NA,yes,NA
1,brazilian-portuguese,L_balanced,mbrola,lab,302,9,test cswl,35,NA,NA,NA,NA,NA,NA,audio/pp1.wav,img/04.jpg,img/02.jpg,img/06.jpg,img/01.jpg,high,1,1,2.032925692,0.25,NA,336,24,male,undergraduate,math,yes,NA,no,NA,NA,yes,NA,no,NA,NA,NA,NA,NA,NA,NA,NA,NA,NA,NA,NA,yes,NA,yes,NA
1,brazilian-portuguese,L_balanced,mbrola,lab,302,9,test cswl,36,NA,NA,NA,NA,NA,NA,audio/p4.wav,img/01.jpg,img/03.jpg,img/05.jpg,img/04.jpg,low,1,1,2.566354283,0.25,NA,336,24,male,undergraduate,math,yes,NA,no,NA,NA,yes,NA,no,NA,NA,NA,NA,NA,NA,NA,NA,NA,NA,NA,NA,yes,NA,yes,NA
1,brazilian-portuguese,L_balanced,mbrola,lab,302,9,test cswl,37,NA,NA,NA,NA,NA,NA,audio/p6.wav,img/03.jpg,img/02.jpg,img/06.jpg,img/01.jpg,low,3,1,3.515591039,0.25,NA,336,24,male,undergraduate,math,yes,NA,no,NA,NA,yes,NA,no,NA,NA,NA,NA,NA,NA,NA,NA,NA,NA,NA,NA,yes,NA,yes,NA
1,brazilian-portuguese,L_balanced,mbrola,lab,302,9,self evaluation cswl,NA,NA,NA,NA,NA,NA,NA,NA,NA,NA,NA,NA,NA,4,NA,10.44711112,NA,NA,336,24,male,undergraduate,math,yes,NA,no,NA,NA,yes,NA,no,NA,NA,NA,NA,NA,NA,NA,NA,NA,NA,NA,NA,yes,NA,yes,NA
1,brazilian-portuguese,L_balanced,mbrola,lab,304,10,warm up ws,NA,NA,NA,NA,audio/cabo.wav,audio/guvi.wav,NA,NA,NA,NA,NA,NA,NA,2,1,2.583168931,NA,NA,337,19,male,undergraduate,civil engineering,yes,NA,no,NA,NA,yes,NA,no,NA,NA,NA,NA,NA,NA,NA,NA,NA,NA,NA,NA,yes,NA,yes,NA
1,brazilian-portuguese,L_balanced,mbrola,lab,304,10,warm up ws,NA,NA,NA,NA,audio/bola.wav,audio/fabu.wav,NA,NA,NA,NA,NA,NA,NA,1,1,1.150242213,NA,NA,337,19,male,undergraduate,civil engineering,yes,NA,no,NA,NA,yes,NA,no,NA,NA,NA,NA,NA,NA,NA,NA,NA,NA,NA,NA,yes,NA,yes,NA
1,brazilian-portuguese,L_balanced,mbrola,lab,304,10,warm up ws,NA,NA,NA,NA,audio/pato.wav,audio/tibo.wav,NA,NA,NA,NA,NA,NA,NA,1,1,3.916033385,NA,NA,337,19,male,undergraduate,civil engineering,yes,NA,no,NA,NA,yes,NA,no,NA,NA,NA,NA,NA,NA,NA,NA,NA,NA,NA,NA,yes,NA,yes,NA
1,brazilian-portuguese,L_balanced,mbrola,lab,304,10,warm up ws,NA,NA,NA,NA,audio/tela.wav,audio/bafi.wav,NA,NA,NA,NA,NA,NA,NA,2,1,5.032478099,NA,NA,337,19,male,undergraduate,civil engineering,yes,NA,no,NA,NA,yes,NA,no,NA,NA,NA,NA,NA,NA,NA,NA,NA,NA,NA,NA,yes,NA,yes,NA
1,brazilian-portuguese,L_balanced,mbrola,lab,304,10,test ws,5,5,NA,NA,audio/pp3.wav,audio/pp4.wav,part_word,NA,NA,NA,NA,NA,NA,1,1,0.400414408,0.5,NA,337,19,male,undergraduate,civil engineering,yes,NA,no,NA,NA,yes,NA,no,NA,NA,NA,NA,NA,NA,NA,NA,NA,NA,NA,NA,yes,NA,yes,NA
1,brazilian-portuguese,L_balanced,mbrola,lab,304,10,test ws,6,5,NA,NA,audio/pp1.wav,audio/pp6.wav,part_word,NA,NA,NA,NA,NA,NA,2,1,0.317176485,0.5,NA,337,19,male,undergraduate,civil engineering,yes,NA,no,NA,NA,yes,NA,no,NA,NA,NA,NA,NA,NA,NA,NA,NA,NA,NA,NA,yes,NA,yes,NA
1,brazilian-portuguese,L_balanced,mbrola,lab,304,10,test ws,7,5,NA,NA,audio/pp2.wav,audio/pp5.wav,part_word,NA,NA,NA,NA,NA,NA,1,1,0.766876797,0.5,NA,337,19,male,undergraduate,civil engineering,yes,NA,no,NA,NA,yes,NA,no,NA,NA,NA,NA,NA,NA,NA,NA,NA,NA,NA,NA,yes,NA,yes,NA
1,brazilian-portuguese,L_balanced,mbrola,lab,304,10,test ws,8,2,NA,NA,audio/pp3.wav,audio/pp4.wav,part_word,NA,NA,NA,NA,NA,NA,1,1,0.449971719,0.5,NA,337,19,male,undergraduate,civil engineering,yes,NA,no,NA,NA,yes,NA,no,NA,NA,NA,NA,NA,NA,NA,NA,NA,NA,NA,NA,yes,NA,yes,NA
1,brazilian-portuguese,L_balanced,mbrola,lab,304,10,test ws,9,2,NA,NA,audio/pp2.wav,audio/pp5.wav,part_word,NA,NA,NA,NA,NA,NA,2,0,1.50000171,0.5,NA,337,19,male,undergraduate,civil engineering,yes,NA,no,NA,NA,yes,NA,no,NA,NA,NA,NA,NA,NA,NA,NA,NA,NA,NA,NA,yes,NA,yes,NA
1,brazilian-portuguese,L_balanced,mbrola,lab,304,10,test ws,10,2,NA,NA,audio/pp1.wav,audio/pp6.wav,part_word,NA,NA,NA,NA,NA,NA,2,1,0.433663962,0.5,NA,337,19,male,undergraduate,civil engineering,yes,NA,no,NA,NA,yes,NA,no,NA,NA,NA,NA,NA,NA,NA,NA,NA,NA,NA,NA,yes,NA,yes,NA
1,brazilian-portuguese,L_balanced,mbrola,lab,304,10,test ws,11,3,NA,NA,audio/pp2.wav,audio/pp5.wav,part_word,NA,NA,NA,NA,NA,NA,2,1,2.899557425,0.5,NA,337,19,male,undergraduate,civil engineering,yes,NA,no,NA,NA,yes,NA,no,NA,NA,NA,NA,NA,NA,NA,NA,NA,NA,NA,NA,yes,NA,yes,NA
1,brazilian-portuguese,L_balanced,mbrola,lab,304,10,test ws,12,3,NA,NA,audio/pp3.wav,audio/pp6.wav,part_word,NA,NA,NA,NA,NA,NA,2,1,0.433714709,0.5,NA,337,19,male,undergraduate,civil engineering,yes,NA,no,NA,NA,yes,NA,no,NA,NA,NA,NA,NA,NA,NA,NA,NA,NA,NA,NA,yes,NA,yes,NA
1,brazilian-portuguese,L_balanced,mbrola,lab,304,10,test ws,13,3,NA,NA,audio/pp1.wav,audio/pp4.wav,part_word,NA,NA,NA,NA,NA,NA,2,1,0.333776744,0.5,NA,337,19,male,undergraduate,civil engineering,yes,NA,no,NA,NA,yes,NA,no,NA,NA,NA,NA,NA,NA,NA,NA,NA,NA,NA,NA,yes,NA,yes,NA
1,brazilian-portuguese,L_balanced,mbrola,lab,304,10,test ws,14,4,NA,NA,audio/pp3.wav,audio/pp6.wav,part_word,NA,NA,NA,NA,NA,NA,2,1,0.517177853,0.5,NA,337,19,male,undergraduate,civil engineering,yes,NA,no,NA,NA,yes,NA,no,NA,NA,NA,NA,NA,NA,NA,NA,NA,NA,NA,NA,yes,NA,yes,NA
1,brazilian-portuguese,L_balanced,mbrola,lab,304,10,test ws,15,4,NA,NA,audio/pp1.wav,audio/pp5.wav,part_word,NA,NA,NA,NA,NA,NA,2,1,0.300377232,0.5,NA,337,19,male,undergraduate,civil engineering,yes,NA,no,NA,NA,yes,NA,no,NA,NA,NA,NA,NA,NA,NA,NA,NA,NA,NA,NA,yes,NA,yes,NA
1,brazilian-portuguese,L_balanced,mbrola,lab,304,10,test ws,16,4,NA,NA,audio/pp2.wav,audio/pp4.wav,part_word,NA,NA,NA,NA,NA,NA,1,1,1.517064387,0.5,NA,337,19,male,undergraduate,civil engineering,yes,NA,no,NA,NA,yes,NA,no,NA,NA,NA,NA,NA,NA,NA,NA,NA,NA,NA,NA,yes,NA,yes,NA
