experiment,native_language,speech_version,speech_recording,site,p_n_unique,participant_n,trial_type,trial_number,block_ws,block_cswl,condition_cswl,target_audio_ws,distractor_audio_ws,distractor_audio_type_ws,target_audio_cswl,target_visual,distractor_visual_1,distractor_visual_2,distractor_visual_3,freq_pair,key_pressed,is_correct,rt,chance_level,sona_gift_card,id_quest,age,gender,education,major,born_native,other_native,live_abroad,months_abroad,age_abroad,native_speaker,alternative_native_language,speak_foreign_language,foreign_1,level_1,age_acquisition_1,foreign_2,level_2,age_acquisition_2,foreign_3,level_3,age_acquisition_3,foreign_4,level_4,age_acquisition_4,normal_hearing,hearing_impairment,normal_vision,vision_impairment
Exp1 - ws only,brazilian-portuguese,L_aligned,mbrola,lab,113,1,warm up ws,NA,NA,NA,NA,audio/cabo.wav,audio/guvi.wav,NA,NA,NA,NA,NA,NA,NA,2,1,1.288461253,NA,NA,1,20,female,undergraduate,psychology,yes,NA,yes,?,?,yes,NA,yes,Spanish,5,11,NA,NA,NA,NA,NA,NA,NA,NA,NA,yes,NA,yes,NA
Exp1 - ws only,brazilian-portuguese,L_aligned,mbrola,lab,113,1,warm up ws,NA,NA,NA,NA,audio/pato.wav,audio/tibo.wav,NA,NA,NA,NA,NA,NA,NA,1,1,1.252607721,NA,NA,1,20,female,undergraduate,psychology,yes,NA,yes,?,?,yes,NA,yes,Spanish,5,11,NA,NA,NA,NA,NA,NA,NA,NA,NA,yes,NA,yes,NA
Exp1 - ws only,brazilian-portuguese,L_aligned,mbrola,lab,113,1,warm up ws,NA,NA,NA,NA,audio/bola.wav,audio/sibu.wav,NA,NA,NA,NA,NA,NA,NA,1,1,2.322930387,NA,NA,1,20,female,undergraduate,psychology,yes,NA,yes,?,?,yes,NA,yes,Spanish,5,11,NA,NA,NA,NA,NA,NA,NA,NA,NA,yes,NA,yes,NA
Exp1 - ws only,brazilian-portuguese,L_aligned,mbrola,lab,113,1,warm up ws,NA,NA,NA,NA,audio/tela.wav,audio/bafi.wav,NA,NA,NA,NA,NA,NA,NA,2,1,0.65493862,NA,NA,1,20,female,undergraduate,psychology,yes,NA,yes,?,?,yes,NA,yes,Spanish,5,11,NA,NA,NA,NA,NA,NA,NA,NA,NA,yes,NA,yes,NA
Exp1 - ws only,brazilian-portuguese,L_aligned,mbrola,lab,113,1,test ws,5,2,NA,NA,audio/p6.wav,audio/pp1.wav,part_word,NA,NA,NA,NA,NA,NA,1,1,0.717737751,0.5,NA,1,20,female,undergraduate,psychology,yes,NA,yes,?,?,yes,NA,yes,Spanish,5,11,NA,NA,NA,NA,NA,NA,NA,NA,NA,yes,NA,yes,NA
Exp1 - ws only,brazilian-portuguese,L_aligned,mbrola,lab,113,1,test ws,6,2,NA,NA,audio/p4.wav,audio/pp3.wav,part_word,NA,NA,NA,NA,NA,NA,2,1,2.038488337,0.5,NA,1,20,female,undergraduate,psychology,yes,NA,yes,?,?,yes,NA,yes,Spanish,5,11,NA,NA,NA,NA,NA,NA,NA,NA,NA,yes,NA,yes,NA
Exp1 - ws only,brazilian-portuguese,L_aligned,mbrola,lab,113,1,test ws,7,2,NA,NA,audio/p5.wav,audio/pp2.wav,part_word,NA,NA,NA,NA,NA,NA,1,1,0.634879093,0.5,NA,1,20,female,undergraduate,psychology,yes,NA,yes,?,?,yes,NA,yes,Spanish,5,11,NA,NA,NA,NA,NA,NA,NA,NA,NA,yes,NA,yes,NA
Exp1 - ws only,brazilian-portuguese,L_aligned,mbrola,lab,113,1,test ws,8,5,NA,NA,audio/p4.wav,audio/pp3.wav,part_word,NA,NA,NA,NA,NA,NA,2,1,0.986006055,0.5,NA,1,20,female,undergraduate,psychology,yes,NA,yes,?,?,yes,NA,yes,Spanish,5,11,NA,NA,NA,NA,NA,NA,NA,NA,NA,yes,NA,yes,NA
Exp1 - ws only,brazilian-portuguese,L_aligned,mbrola,lab,113,1,test ws,9,5,NA,NA,audio/p6.wav,audio/pp1.wav,part_word,NA,NA,NA,NA,NA,NA,1,1,1.720484882,0.5,NA,1,20,female,undergraduate,psychology,yes,NA,yes,?,?,yes,NA,yes,Spanish,5,11,NA,NA,NA,NA,NA,NA,NA,NA,NA,yes,NA,yes,NA
Exp1 - ws only,brazilian-portuguese,L_aligned,mbrola,lab,113,1,test ws,10,5,NA,NA,audio/p5.wav,audio/pp2.wav,part_word,NA,NA,NA,NA,NA,NA,1,1,0.618672848,0.5,NA,1,20,female,undergraduate,psychology,yes,NA,yes,?,?,yes,NA,yes,Spanish,5,11,NA,NA,NA,NA,NA,NA,NA,NA,NA,yes,NA,yes,NA
Exp1 - ws only,brazilian-portuguese,L_aligned,mbrola,lab,113,1,test ws,11,1,NA,NA,audio/p5.wav,audio/pp3.wav,part_word,NA,NA,NA,NA,NA,NA,1,1,0.817941306,0.5,NA,1,20,female,undergraduate,psychology,yes,NA,yes,?,?,yes,NA,yes,Spanish,5,11,NA,NA,NA,NA,NA,NA,NA,NA,NA,yes,NA,yes,NA
Exp1 - ws only,brazilian-portuguese,L_aligned,mbrola,lab,113,1,test ws,12,1,NA,NA,audio/p4.wav,audio/pp2.wav,part_word,NA,NA,NA,NA,NA,NA,2,1,0.652051225,0.5,NA,1,20,female,undergraduate,psychology,yes,NA,yes,?,?,yes,NA,yes,Spanish,5,11,NA,NA,NA,NA,NA,NA,NA,NA,NA,yes,NA,yes,NA
Exp1 - ws only,brazilian-portuguese,L_aligned,mbrola,lab,113,1,test ws,13,1,NA,NA,audio/p6.wav,audio/pp1.wav,part_word,NA,NA,NA,NA,NA,NA,1,1,0.501701419,0.5,NA,1,20,female,undergraduate,psychology,yes,NA,yes,?,?,yes,NA,yes,Spanish,5,11,NA,NA,NA,NA,NA,NA,NA,NA,NA,yes,NA,yes,NA
Exp1 - ws only,brazilian-portuguese,L_aligned,mbrola,lab,113,1,test ws,14,4,NA,NA,audio/p6.wav,audio/pp3.wav,part_word,NA,NA,NA,NA,NA,NA,2,1,2.672522992,0.5,NA,1,20,female,undergraduate,psychology,yes,NA,yes,?,?,yes,NA,yes,Spanish,5,11,NA,NA,NA,NA,NA,NA,NA,NA,NA,yes,NA,yes,NA
Exp1 - ws only,brazilian-portuguese,L_aligned,mbrola,lab,113,1,test ws,15,4,NA,NA,audio/p4.wav,audio/pp2.wav,part_word,NA,NA,NA,NA,NA,NA,2,1,1.018855875,0.5,NA,1,20,female,undergraduate,psychology,yes,NA,yes,?,?,yes,NA,yes,Spanish,5,11,NA,NA,NA,NA,NA,NA,NA,NA,NA,yes,NA,yes,NA
Exp1 - ws only,brazilian-portuguese,L_aligned,mbrola,lab,113,1,test ws,16,4,NA,NA,audio/p5.wav,audio/pp1.wav,part_word,NA,NA,NA,NA,NA,NA,1,1,0.718543987,0.5,NA,1,20,female,undergraduate,psychology,yes,NA,yes,?,?,yes,NA,yes,Spanish,5,11,NA,NA,NA,NA,NA,NA,NA,NA,NA,yes,NA,yes,NA
Exp1 - ws only,brazilian-portuguese,L_aligned,mbrola,lab,113,1,test ws,17,6,NA,NA,audio/p4.wav,audio/pp1.wav,part_word,NA,NA,NA,NA,NA,NA,2,1,0.651659511,0.5,NA,1,20,female,undergraduate,psychology,yes,NA,yes,?,?,yes,NA,yes,Spanish,5,11,NA,NA,NA,NA,NA,NA,NA,NA,NA,yes,NA,yes,NA
Exp1 - ws only,brazilian-portuguese,L_aligned,mbrola,lab,113,1,test ws,18,6,NA,NA,audio/p5.wav,audio/pp3.wav,part_word,NA,NA,NA,NA,NA,NA,2,1,0.669620203,0.5,NA,1,20,female,undergraduate,psychology,yes,NA,yes,?,?,yes,NA,yes,Spanish,5,11,NA,NA,NA,NA,NA,NA,NA,NA,NA,yes,NA,yes,NA
Exp1 - ws only,brazilian-portuguese,L_aligned,mbrola,lab,113,1,test ws,19,6,NA,NA,audio/p6.wav,audio/pp2.wav,part_word,NA,NA,NA,NA,NA,NA,1,1,0.501508128,0.5,NA,1,20,female,undergraduate,psychology,yes,NA,yes,?,?,yes,NA,yes,Spanish,5,11,NA,NA,NA,NA,NA,NA,NA,NA,NA,yes,NA,yes,NA
Exp1 - ws only,brazilian-portuguese,L_aligned,mbrola,lab,113,1,test ws,20,3,NA,NA,audio/p6.wav,audio/pp3.wav,part_word,NA,NA,NA,NA,NA,NA,2,1,1.504002668,0.5,NA,1,20,female,undergraduate,psychology,yes,NA,yes,?,?,yes,NA,yes,Spanish,5,11,NA,NA,NA,NA,NA,NA,NA,NA,NA,yes,NA,yes,NA
Exp1 - ws only,brazilian-portuguese,L_aligned,mbrola,lab,113,1,test ws,21,3,NA,NA,audio/p5.wav,audio/pp2.wav,part_word,NA,NA,NA,NA,NA,NA,2,1,0.499441223,0.5,NA,1,20,female,undergraduate,psychology,yes,NA,yes,?,?,yes,NA,yes,Spanish,5,11,NA,NA,NA,NA,NA,NA,NA,NA,NA,yes,NA,yes,NA
Exp1 - ws only,brazilian-portuguese,L_aligned,mbrola,lab,113,1,test ws,22,3,NA,NA,audio/p4.wav,audio/pp1.wav,part_word,NA,NA,NA,NA,NA,NA,2,1,0.38460227,0.5,NA,1,20,female,undergraduate,psychology,yes,NA,yes,?,?,yes,NA,yes,Spanish,5,11,NA,NA,NA,NA,NA,NA,NA,NA,NA,yes,NA,yes,NA
Exp1 - ws only,brazilian-portuguese,L_aligned,mbrola,lab,113,1,self evaluation ws,NA,NA,NA,NA,NA,NA,NA,NA,NA,NA,NA,NA,NA,3,NA,11.34620174,NA,NA,1,20,female,undergraduate,psychology,yes,NA,yes,?,?,yes,NA,yes,Spanish,5,11,NA,NA,NA,NA,NA,NA,NA,NA,NA,yes,NA,yes,NA
Exp1 - ws only,brazilian-portuguese,L_aligned,mbrola,lab,113,1,puzzle concentration,NA,NA,NA,NA,NA,NA,NA,NA,NA,NA,NA,NA,NA,4,NA,4.36446862,NA,NA,1,20,female,undergraduate,psychology,yes,NA,yes,?,?,yes,NA,yes,Spanish,5,11,NA,NA,NA,NA,NA,NA,NA,NA,NA,yes,NA,yes,NA
Exp1 - ws only,brazilian-portuguese,L_aligned,mbrola,lab,114,2,warm up ws,NA,NA,NA,NA,audio/bola.wav,audio/sibu.wav,NA,NA,NA,NA,NA,NA,NA,1,1,3.040986299,NA,NA,2,19,male,undergraduate,psychology,yes,NA,no,NA,NA,yes,NA,yes,Spanish,6,8,NA,NA,NA,NA,NA,NA,NA,NA,NA,yes,NA,yes,NA
Exp1 - ws only,brazilian-portuguese,L_aligned,mbrola,lab,114,2,warm up ws,NA,NA,NA,NA,audio/tela.wav,audio/bafi.wav,NA,NA,NA,NA,NA,NA,NA,2,1,0.903649156,NA,NA,2,19,male,undergraduate,psychology,yes,NA,no,NA,NA,yes,NA,yes,Spanish,6,8,NA,NA,NA,NA,NA,NA,NA,NA,NA,yes,NA,yes,NA
Exp1 - ws only,brazilian-portuguese,L_aligned,mbrola,lab,114,2,warm up ws,NA,NA,NA,NA,audio/pato.wav,audio/tibo.wav,NA,NA,NA,NA,NA,NA,NA,1,1,2.73963497,NA,NA,2,19,male,undergraduate,psychology,yes,NA,no,NA,NA,yes,NA,yes,Spanish,6,8,NA,NA,NA,NA,NA,NA,NA,NA,NA,yes,NA,yes,NA
Exp1 - ws only,brazilian-portuguese,L_aligned,mbrola,lab,114,2,warm up ws,NA,NA,NA,NA,audio/cabo.wav,audio/guvi.wav,NA,NA,NA,NA,NA,NA,NA,2,1,1.036185377,NA,NA,2,19,male,undergraduate,psychology,yes,NA,no,NA,NA,yes,NA,yes,Spanish,6,8,NA,NA,NA,NA,NA,NA,NA,NA,NA,yes,NA,yes,NA
Exp1 - ws only,brazilian-portuguese,L_aligned,mbrola,lab,114,2,test ws,5,3,NA,NA,audio/p4.wav,audio/pp1.wav,part_word,NA,NA,NA,NA,NA,NA,1,0,0.670679598,0.5,NA,2,19,male,undergraduate,psychology,yes,NA,no,NA,NA,yes,NA,yes,Spanish,6,8,NA,NA,NA,NA,NA,NA,NA,NA,NA,yes,NA,yes,NA
Exp1 - ws only,brazilian-portuguese,L_aligned,mbrola,lab,114,2,test ws,6,3,NA,NA,audio/p6.wav,audio/pp3.wav,part_word,NA,NA,NA,NA,NA,NA,2,1,2.5211748,0.5,NA,2,19,male,undergraduate,psychology,yes,NA,no,NA,NA,yes,NA,yes,Spanish,6,8,NA,NA,NA,NA,NA,NA,NA,NA,NA,yes,NA,yes,NA
Exp1 - ws only,brazilian-portuguese,L_aligned,mbrola,lab,114,2,test ws,7,3,NA,NA,audio/p5.wav,audio/pp2.wav,part_word,NA,NA,NA,NA,NA,NA,2,1,0.520089746,0.5,NA,2,19,male,undergraduate,psychology,yes,NA,no,NA,NA,yes,NA,yes,Spanish,6,8,NA,NA,NA,NA,NA,NA,NA,NA,NA,yes,NA,yes,NA
Exp1 - ws only,brazilian-portuguese,L_aligned,mbrola,lab,114,2,test ws,8,4,NA,NA,audio/p5.wav,audio/pp1.wav,part_word,NA,NA,NA,NA,NA,NA,2,0,0.417289589,0.5,NA,2,19,male,undergraduate,psychology,yes,NA,no,NA,NA,yes,NA,yes,Spanish,6,8,NA,NA,NA,NA,NA,NA,NA,NA,NA,yes,NA,yes,NA
Exp1 - ws only,brazilian-portuguese,L_aligned,mbrola,lab,114,2,test ws,9,4,NA,NA,audio/p4.wav,audio/pp2.wav,part_word,NA,NA,NA,NA,NA,NA,2,1,0.401304573,0.5,NA,2,19,male,undergraduate,psychology,yes,NA,no,NA,NA,yes,NA,yes,Spanish,6,8,NA,NA,NA,NA,NA,NA,NA,NA,NA,yes,NA,yes,NA
Exp1 - ws only,brazilian-portuguese,L_aligned,mbrola,lab,114,2,test ws,10,4,NA,NA,audio/p6.wav,audio/pp3.wav,part_word,NA,NA,NA,NA,NA,NA,2,1,0.634372773,0.5,NA,2,19,male,undergraduate,psychology,yes,NA,no,NA,NA,yes,NA,yes,Spanish,6,8,NA,NA,NA,NA,NA,NA,NA,NA,NA,yes,NA,yes,NA
Exp1 - ws only,brazilian-portuguese,L_aligned,mbrola,lab,114,2,test ws,11,2,NA,NA,audio/p4.wav,audio/pp3.wav,part_word,NA,NA,NA,NA,NA,NA,2,1,3.30807946,0.5,NA,2,19,male,undergraduate,psychology,yes,NA,no,NA,NA,yes,NA,yes,Spanish,6,8,NA,NA,NA,NA,NA,NA,NA,NA,NA,yes,NA,yes,NA
Exp1 - ws only,brazilian-portuguese,L_aligned,mbrola,lab,114,2,test ws,12,2,NA,NA,audio/p6.wav,audio/pp1.wav,part_word,NA,NA,NA,NA,NA,NA,1,1,0.534181192,0.5,NA,2,19,male,undergraduate,psychology,yes,NA,no,NA,NA,yes,NA,yes,Spanish,6,8,NA,NA,NA,NA,NA,NA,NA,NA,NA,yes,NA,yes,NA
Exp1 - ws only,brazilian-portuguese,L_aligned,mbrola,lab,114,2,test ws,13,2,NA,NA,audio/p5.wav,audio/pp2.wav,part_word,NA,NA,NA,NA,NA,NA,1,1,0.768214707,0.5,NA,2,19,male,undergraduate,psychology,yes,NA,no,NA,NA,yes,NA,yes,Spanish,6,8,NA,NA,NA,NA,NA,NA,NA,NA,NA,yes,NA,yes,NA
Exp1 - ws only,brazilian-portuguese,L_aligned,mbrola,lab,114,2,test ws,14,5,NA,NA,audio/p4.wav,audio/pp3.wav,part_word,NA,NA,NA,NA,NA,NA,1,0,0.784904466,0.5,NA,2,19,male,undergraduate,psychology,yes,NA,no,NA,NA,yes,NA,yes,Spanish,6,8,NA,NA,NA,NA,NA,NA,NA,NA,NA,yes,NA,yes,NA
Exp1 - ws only,brazilian-portuguese,L_aligned,mbrola,lab,114,2,test ws,15,5,NA,NA,audio/p6.wav,audio/pp1.wav,part_word,NA,NA,NA,NA,NA,NA,1,1,0.434768478,0.5,NA,2,19,male,undergraduate,psychology,yes,NA,no,NA,NA,yes,NA,yes,Spanish,6,8,NA,NA,NA,NA,NA,NA,NA,NA,NA,yes,NA,yes,NA
Exp1 - ws only,brazilian-portuguese,L_aligned,mbrola,lab,114,2,test ws,16,5,NA,NA,audio/p5.wav,audio/pp2.wav,part_word,NA,NA,NA,NA,NA,NA,2,0,2.788563886,0.5,NA,2,19,male,undergraduate,psychology,yes,NA,no,NA,NA,yes,NA,yes,Spanish,6,8,NA,NA,NA,NA,NA,NA,NA,NA,NA,yes,NA,yes,NA
Exp1 - ws only,brazilian-portuguese,L_aligned,mbrola,lab,114,2,test ws,17,1,NA,NA,audio/p5.wav,audio/pp3.wav,part_word,NA,NA,NA,NA,NA,NA,2,0,0.435535941,0.5,NA,2,19,male,undergraduate,psychology,yes,NA,no,NA,NA,yes,NA,yes,Spanish,6,8,NA,NA,NA,NA,NA,NA,NA,NA,NA,yes,NA,yes,NA
Exp1 - ws only,brazilian-portuguese,L_aligned,mbrola,lab,114,2,test ws,18,1,NA,NA,audio/p6.wav,audio/pp1.wav,part_word,NA,NA,NA,NA,NA,NA,1,1,0.333992462,0.5,NA,2,19,male,undergraduate,psychology,yes,NA,no,NA,NA,yes,NA,yes,Spanish,6,8,NA,NA,NA,NA,NA,NA,NA,NA,NA,yes,NA,yes,NA
Exp1 - ws only,brazilian-portuguese,L_aligned,mbrola,lab,114,2,test ws,19,1,NA,NA,audio/p4.wav,audio/pp2.wav,part_word,NA,NA,NA,NA,NA,NA,2,1,0.533930312,0.5,NA,2,19,male,undergraduate,psychology,yes,NA,no,NA,NA,yes,NA,yes,Spanish,6,8,NA,NA,NA,NA,NA,NA,NA,NA,NA,yes,NA,yes,NA
Exp1 - ws only,brazilian-portuguese,L_aligned,mbrola,lab,114,2,test ws,20,6,NA,NA,audio/p5.wav,audio/pp3.wav,part_word,NA,NA,NA,NA,NA,NA,1,0,2.654958576,0.5,NA,2,19,male,undergraduate,psychology,yes,NA,no,NA,NA,yes,NA,yes,Spanish,6,8,NA,NA,NA,NA,NA,NA,NA,NA,NA,yes,NA,yes,NA
Exp1 - ws only,brazilian-portuguese,L_aligned,mbrola,lab,114,2,test ws,21,6,NA,NA,audio/p4.wav,audio/pp1.wav,part_word,NA,NA,NA,NA,NA,NA,1,0,3.659773752,0.5,NA,2,19,male,undergraduate,psychology,yes,NA,no,NA,NA,yes,NA,yes,Spanish,6,8,NA,NA,NA,NA,NA,NA,NA,NA,NA,yes,NA,yes,NA
Exp1 - ws only,brazilian-portuguese,L_aligned,mbrola,lab,114,2,test ws,22,6,NA,NA,audio/p6.wav,audio/pp2.wav,part_word,NA,NA,NA,NA,NA,NA,1,1,0.351123541,0.5,NA,2,19,male,undergraduate,psychology,yes,NA,no,NA,NA,yes,NA,yes,Spanish,6,8,NA,NA,NA,NA,NA,NA,NA,NA,NA,yes,NA,yes,NA
Exp1 - ws only,brazilian-portuguese,L_aligned,mbrola,lab,114,2,self evaluation ws,NA,NA,NA,NA,NA,NA,NA,NA,NA,NA,NA,NA,NA,1,NA,4.277040534,NA,NA,2,19,male,undergraduate,psychology,yes,NA,no,NA,NA,yes,NA,yes,Spanish,6,8,NA,NA,NA,NA,NA,NA,NA,NA,NA,yes,NA,yes,NA
Exp1 - ws only,brazilian-portuguese,L_aligned,mbrola,lab,114,2,puzzle concentration,NA,NA,NA,NA,NA,NA,NA,NA,NA,NA,NA,NA,NA,4,NA,3.658807866,NA,NA,2,19,male,undergraduate,psychology,yes,NA,no,NA,NA,yes,NA,yes,Spanish,6,8,NA,NA,NA,NA,NA,NA,NA,NA,NA,yes,NA,yes,NA
Exp1 - ws only,brazilian-portuguese,L_aligned,mbrola,lab,115,3,warm up ws,NA,NA,NA,NA,audio/cabo.wav,audio/guvi.wav,NA,NA,NA,NA,NA,NA,NA,2,1,4.048604483,NA,NA,3,23,female,undergraduate,physiotherapy,yes,NA,no,NA,NA,yes,NA,yes,Spanish,2,12,NA,NA,NA,NA,NA,NA,NA,NA,NA,yes,NA,yes,NA
Exp1 - ws only,brazilian-portuguese,L_aligned,mbrola,lab,115,3,warm up ws,NA,NA,NA,NA,audio/tela.wav,audio/bafi.wav,NA,NA,NA,NA,NA,NA,NA,2,1,4.010258121,NA,NA,3,23,female,undergraduate,physiotherapy,yes,NA,no,NA,NA,yes,NA,yes,Spanish,2,12,NA,NA,NA,NA,NA,NA,NA,NA,NA,yes,NA,yes,NA
Exp1 - ws only,brazilian-portuguese,L_aligned,mbrola,lab,115,3,warm up ws,NA,NA,NA,NA,audio/bola.wav,audio/sibu.wav,NA,NA,NA,NA,NA,NA,NA,1,1,3.441100335,NA,NA,3,23,female,undergraduate,physiotherapy,yes,NA,no,NA,NA,yes,NA,yes,Spanish,2,12,NA,NA,NA,NA,NA,NA,NA,NA,NA,yes,NA,yes,NA
Exp1 - ws only,brazilian-portuguese,L_aligned,mbrola,lab,115,3,warm up ws,NA,NA,NA,NA,audio/pato.wav,audio/tibo.wav,NA,NA,NA,NA,NA,NA,NA,1,1,1.053489791,NA,NA,3,23,female,undergraduate,physiotherapy,yes,NA,no,NA,NA,yes,NA,yes,Spanish,2,12,NA,NA,NA,NA,NA,NA,NA,NA,NA,yes,NA,yes,NA
Exp1 - ws only,brazilian-portuguese,L_aligned,mbrola,lab,115,3,test ws,5,5,NA,NA,audio/p4.wav,audio/pp3.wav,part_word,NA,NA,NA,NA,NA,NA,1,0,3.308263629,0.5,NA,3,23,female,undergraduate,physiotherapy,yes,NA,no,NA,NA,yes,NA,yes,Spanish,2,12,NA,NA,NA,NA,NA,NA,NA,NA,NA,yes,NA,yes,NA
Exp1 - ws only,brazilian-portuguese,L_aligned,mbrola,lab,115,3,test ws,6,5,NA,NA,audio/p6.wav,audio/pp1.wav,part_word,NA,NA,NA,NA,NA,NA,2,0,3.058521636,0.5,NA,3,23,female,undergraduate,physiotherapy,yes,NA,no,NA,NA,yes,NA,yes,Spanish,2,12,NA,NA,NA,NA,NA,NA,NA,NA,NA,yes,NA,yes,NA
Exp1 - ws only,brazilian-portuguese,L_aligned,mbrola,lab,115,3,test ws,7,5,NA,NA,audio/p5.wav,audio/pp2.wav,part_word,NA,NA,NA,NA,NA,NA,2,0,2.940567216,0.5,NA,3,23,female,undergraduate,physiotherapy,yes,NA,no,NA,NA,yes,NA,yes,Spanish,2,12,NA,NA,NA,NA,NA,NA,NA,NA,NA,yes,NA,yes,NA
Exp1 - ws only,brazilian-portuguese,L_aligned,mbrola,lab,115,3,test ws,8,2,NA,NA,audio/p6.wav,audio/pp1.wav,part_word,NA,NA,NA,NA,NA,NA,2,0,4.713297754,0.5,NA,3,23,female,undergraduate,physiotherapy,yes,NA,no,NA,NA,yes,NA,yes,Spanish,2,12,NA,NA,NA,NA,NA,NA,NA,NA,NA,yes,NA,yes,NA
Exp1 - ws only,brazilian-portuguese,L_aligned,mbrola,lab,115,3,test ws,9,2,NA,NA,audio/p5.wav,audio/pp2.wav,part_word,NA,NA,NA,NA,NA,NA,2,0,1.504856229,0.5,NA,3,23,female,undergraduate,physiotherapy,yes,NA,no,NA,NA,yes,NA,yes,Spanish,2,12,NA,NA,NA,NA,NA,NA,NA,NA,NA,yes,NA,yes,NA
Exp1 - ws only,brazilian-portuguese,L_aligned,mbrola,lab,115,3,test ws,10,2,NA,NA,audio/p4.wav,audio/pp3.wav,part_word,NA,NA,NA,NA,NA,NA,1,0,4.893076296,0.5,NA,3,23,female,undergraduate,physiotherapy,yes,NA,no,NA,NA,yes,NA,yes,Spanish,2,12,NA,NA,NA,NA,NA,NA,NA,NA,NA,yes,NA,yes,NA
Exp1 - ws only,brazilian-portuguese,L_aligned,mbrola,lab,115,3,test ws,11,6,NA,NA,audio/p4.wav,audio/pp1.wav,part_word,NA,NA,NA,NA,NA,NA,1,0,2.890581755,0.5,NA,3,23,female,undergraduate,physiotherapy,yes,NA,no,NA,NA,yes,NA,yes,Spanish,2,12,NA,NA,NA,NA,NA,NA,NA,NA,NA,yes,NA,yes,NA
Exp1 - ws only,brazilian-portuguese,L_aligned,mbrola,lab,115,3,test ws,12,6,NA,NA,audio/p6.wav,audio/pp2.wav,part_word,NA,NA,NA,NA,NA,NA,2,0,1.105348865,0.5,NA,3,23,female,undergraduate,physiotherapy,yes,NA,no,NA,NA,yes,NA,yes,Spanish,2,12,NA,NA,NA,NA,NA,NA,NA,NA,NA,yes,NA,yes,NA
Exp1 - ws only,brazilian-portuguese,L_aligned,mbrola,lab,115,3,test ws,13,6,NA,NA,audio/p5.wav,audio/pp3.wav,part_word,NA,NA,NA,NA,NA,NA,1,0,0.434830628,0.5,NA,3,23,female,undergraduate,physiotherapy,yes,NA,no,NA,NA,yes,NA,yes,Spanish,2,12,NA,NA,NA,NA,NA,NA,NA,NA,NA,yes,NA,yes,NA
Exp1 - ws only,brazilian-portuguese,L_aligned,mbrola,lab,115,3,test ws,14,4,NA,NA,audio/p4.wav,audio/pp2.wav,part_word,NA,NA,NA,NA,NA,NA,1,0,2.676636276,0.5,NA,3,23,female,undergraduate,physiotherapy,yes,NA,no,NA,NA,yes,NA,yes,Spanish,2,12,NA,NA,NA,NA,NA,NA,NA,NA,NA,yes,NA,yes,NA
Exp1 - ws only,brazilian-portuguese,L_aligned,mbrola,lab,115,3,test ws,15,4,NA,NA,audio/p6.wav,audio/pp3.wav,part_word,NA,NA,NA,NA,NA,NA,1,0,1.254139227,0.5,NA,3,23,female,undergraduate,physiotherapy,yes,NA,no,NA,NA,yes,NA,yes,Spanish,2,12,NA,NA,NA,NA,NA,NA,NA,NA,NA,yes,NA,yes,NA
Exp1 - ws only,brazilian-portuguese,L_aligned,mbrola,lab,115,3,test ws,16,4,NA,NA,audio/p5.wav,audio/pp1.wav,part_word,NA,NA,NA,NA,NA,NA,2,0,0.500727551,0.5,NA,3,23,female,undergraduate,physiotherapy,yes,NA,no,NA,NA,yes,NA,yes,Spanish,2,12,NA,NA,NA,NA,NA,NA,NA,NA,NA,yes,NA,yes,NA
Exp1 - ws only,brazilian-portuguese,L_aligned,mbrola,lab,115,3,test ws,17,1,NA,NA,audio/p6.wav,audio/pp1.wav,part_word,NA,NA,NA,NA,NA,NA,2,0,1.034930409,0.5,NA,3,23,female,undergraduate,physiotherapy,yes,NA,no,NA,NA,yes,NA,yes,Spanish,2,12,NA,NA,NA,NA,NA,NA,NA,NA,NA,yes,NA,yes,NA
Exp1 - ws only,brazilian-portuguese,L_aligned,mbrola,lab,115,3,test ws,18,1,NA,NA,audio/p4.wav,audio/pp2.wav,part_word,NA,NA,NA,NA,NA,NA,2,1,1.772363342,0.5,NA,3,23,female,undergraduate,physiotherapy,yes,NA,no,NA,NA,yes,NA,yes,Spanish,2,12,NA,NA,NA,NA,NA,NA,NA,NA,NA,yes,NA,yes,NA
Exp1 - ws only,brazilian-portuguese,L_aligned,mbrola,lab,115,3,test ws,19,1,NA,NA,audio/p5.wav,audio/pp3.wav,part_word,NA,NA,NA,NA,NA,NA,1,1,1.13874891,0.5,NA,3,23,female,undergraduate,physiotherapy,yes,NA,no,NA,NA,yes,NA,yes,Spanish,2,12,NA,NA,NA,NA,NA,NA,NA,NA,NA,yes,NA,yes,NA
Exp1 - ws only,brazilian-portuguese,L_aligned,mbrola,lab,115,3,test ws,20,3,NA,NA,audio/p4.wav,audio/pp1.wav,part_word,NA,NA,NA,NA,NA,NA,2,1,0.652185788,0.5,NA,3,23,female,undergraduate,physiotherapy,yes,NA,no,NA,NA,yes,NA,yes,Spanish,2,12,NA,NA,NA,NA,NA,NA,NA,NA,NA,yes,NA,yes,NA
Exp1 - ws only,brazilian-portuguese,L_aligned,mbrola,lab,115,3,test ws,21,3,NA,NA,audio/p6.wav,audio/pp3.wav,part_word,NA,NA,NA,NA,NA,NA,2,1,1.169672659,0.5,NA,3,23,female,undergraduate,physiotherapy,yes,NA,no,NA,NA,yes,NA,yes,Spanish,2,12,NA,NA,NA,NA,NA,NA,NA,NA,NA,yes,NA,yes,NA
Exp1 - ws only,brazilian-portuguese,L_aligned,mbrola,lab,115,3,test ws,22,3,NA,NA,audio/p5.wav,audio/pp2.wav,part_word,NA,NA,NA,NA,NA,NA,1,0,0.738739216,0.5,NA,3,23,female,undergraduate,physiotherapy,yes,NA,no,NA,NA,yes,NA,yes,Spanish,2,12,NA,NA,NA,NA,NA,NA,NA,NA,NA,yes,NA,yes,NA
Exp1 - ws only,brazilian-portuguese,L_aligned,mbrola,lab,115,3,self evaluation ws,NA,NA,NA,NA,NA,NA,NA,NA,NA,NA,NA,NA,NA,1,NA,5.23082853,NA,NA,3,23,female,undergraduate,physiotherapy,yes,NA,no,NA,NA,yes,NA,yes,Spanish,2,12,NA,NA,NA,NA,NA,NA,NA,NA,NA,yes,NA,yes,NA
Exp1 - ws only,brazilian-portuguese,L_aligned,mbrola,lab,115,3,puzzle concentration,NA,NA,NA,NA,NA,NA,NA,NA,NA,NA,NA,NA,NA,3,NA,7.800395705,NA,NA,3,23,female,undergraduate,physiotherapy,yes,NA,no,NA,NA,yes,NA,yes,Spanish,2,12,NA,NA,NA,NA,NA,NA,NA,NA,NA,yes,NA,yes,NA
Exp1 - ws only,brazilian-portuguese,L_aligned,mbrola,lab,116,4,warm up ws,NA,NA,NA,NA,audio/cabo.wav,audio/guvi.wav,NA,NA,NA,NA,NA,NA,NA,2,1,4.206510893,NA,NA,4,22,female,undergraduate,physiotherapy,yes,NA,no,NA,NA,yes,NA,no,NA,NA,NA,NA,NA,NA,NA,NA,NA,NA,NA,NA,yes,NA,yes,NA
Exp1 - ws only,brazilian-portuguese,L_aligned,mbrola,lab,116,4,warm up ws,NA,NA,NA,NA,audio/tela.wav,audio/bafi.wav,NA,NA,NA,NA,NA,NA,NA,1,0,2.643464304,NA,NA,4,22,female,undergraduate,physiotherapy,yes,NA,no,NA,NA,yes,NA,no,NA,NA,NA,NA,NA,NA,NA,NA,NA,NA,NA,NA,yes,NA,yes,NA
Exp1 - ws only,brazilian-portuguese,L_aligned,mbrola,lab,116,4,warm up ws,NA,NA,NA,NA,audio/bola.wav,audio/sibu.wav,NA,NA,NA,NA,NA,NA,NA,2,0,1.020951289,NA,NA,4,22,female,undergraduate,physiotherapy,yes,NA,no,NA,NA,yes,NA,no,NA,NA,NA,NA,NA,NA,NA,NA,NA,NA,NA,NA,yes,NA,yes,NA
Exp1 - ws only,brazilian-portuguese,L_aligned,mbrola,lab,116,4,warm up ws,NA,NA,NA,NA,audio/pato.wav,audio/tibo.wav,NA,NA,NA,NA,NA,NA,NA,1,1,0.912327306,NA,NA,4,22,female,undergraduate,physiotherapy,yes,NA,no,NA,NA,yes,NA,no,NA,NA,NA,NA,NA,NA,NA,NA,NA,NA,NA,NA,yes,NA,yes,NA
Exp1 - ws only,brazilian-portuguese,L_aligned,mbrola,lab,116,4,test ws,5,1,NA,NA,audio/p4.wav,audio/pp2.wav,part_word,NA,NA,NA,NA,NA,NA,2,1,0.910073952,0.5,NA,4,22,female,undergraduate,physiotherapy,yes,NA,no,NA,NA,yes,NA,no,NA,NA,NA,NA,NA,NA,NA,NA,NA,NA,NA,NA,yes,NA,yes,NA
Exp1 - ws only,brazilian-portuguese,L_aligned,mbrola,lab,116,4,test ws,6,1,NA,NA,audio/p6.wav,audio/pp1.wav,part_word,NA,NA,NA,NA,NA,NA,1,1,0.416025498,0.5,NA,4,22,female,undergraduate,physiotherapy,yes,NA,no,NA,NA,yes,NA,no,NA,NA,NA,NA,NA,NA,NA,NA,NA,NA,NA,NA,yes,NA,yes,NA
Exp1 - ws only,brazilian-portuguese,L_aligned,mbrola,lab,116,4,test ws,7,1,NA,NA,audio/p5.wav,audio/pp3.wav,part_word,NA,NA,NA,NA,NA,NA,2,0,1.32584401,0.5,NA,4,22,female,undergraduate,physiotherapy,yes,NA,no,NA,NA,yes,NA,no,NA,NA,NA,NA,NA,NA,NA,NA,NA,NA,NA,NA,yes,NA,yes,NA
Exp1 - ws only,brazilian-portuguese,L_aligned,mbrola,lab,116,4,test ws,8,6,NA,NA,audio/p4.wav,audio/pp1.wav,part_word,NA,NA,NA,NA,NA,NA,1,0,0.742179117,0.5,NA,4,22,female,undergraduate,physiotherapy,yes,NA,no,NA,NA,yes,NA,no,NA,NA,NA,NA,NA,NA,NA,NA,NA,NA,NA,NA,yes,NA,yes,NA
Exp1 - ws only,brazilian-portuguese,L_aligned,mbrola,lab,116,4,test ws,9,6,NA,NA,audio/p6.wav,audio/pp2.wav,part_word,NA,NA,NA,NA,NA,NA,1,1,0.434937252,0.5,NA,4,22,female,undergraduate,physiotherapy,yes,NA,no,NA,NA,yes,NA,no,NA,NA,NA,NA,NA,NA,NA,NA,NA,NA,NA,NA,yes,NA,yes,NA
Exp1 - ws only,brazilian-portuguese,L_aligned,mbrola,lab,116,4,test ws,10,6,NA,NA,audio/p5.wav,audio/pp3.wav,part_word,NA,NA,NA,NA,NA,NA,2,1,0.543189477,0.5,NA,4,22,female,undergraduate,physiotherapy,yes,NA,no,NA,NA,yes,NA,no,NA,NA,NA,NA,NA,NA,NA,NA,NA,NA,NA,NA,yes,NA,yes,NA
Exp1 - ws only,brazilian-portuguese,L_aligned,mbrola,lab,116,4,test ws,11,5,NA,NA,audio/p6.wav,audio/pp1.wav,part_word,NA,NA,NA,NA,NA,NA,1,1,0.850145111,0.5,NA,4,22,female,undergraduate,physiotherapy,yes,NA,no,NA,NA,yes,NA,no,NA,NA,NA,NA,NA,NA,NA,NA,NA,NA,NA,NA,yes,NA,yes,NA
Exp1 - ws only,brazilian-portuguese,L_aligned,mbrola,lab,116,4,test ws,12,5,NA,NA,audio/p5.wav,audio/pp2.wav,part_word,NA,NA,NA,NA,NA,NA,2,0,0.524141451,0.5,NA,4,22,female,undergraduate,physiotherapy,yes,NA,no,NA,NA,yes,NA,no,NA,NA,NA,NA,NA,NA,NA,NA,NA,NA,NA,NA,yes,NA,yes,NA
Exp1 - ws only,brazilian-portuguese,L_aligned,mbrola,lab,116,4,test ws,13,5,NA,NA,audio/p4.wav,audio/pp3.wav,part_word,NA,NA,NA,NA,NA,NA,2,1,0.694553064,0.5,NA,4,22,female,undergraduate,physiotherapy,yes,NA,no,NA,NA,yes,NA,no,NA,NA,NA,NA,NA,NA,NA,NA,NA,NA,NA,NA,yes,NA,yes,NA
Exp1 - ws only,brazilian-portuguese,L_aligned,mbrola,lab,116,4,test ws,14,3,NA,NA,audio/p4.wav,audio/pp1.wav,part_word,NA,NA,NA,NA,NA,NA,2,1,0.755968366,0.5,NA,4,22,female,undergraduate,physiotherapy,yes,NA,no,NA,NA,yes,NA,no,NA,NA,NA,NA,NA,NA,NA,NA,NA,NA,NA,NA,yes,NA,yes,NA
Exp1 - ws only,brazilian-portuguese,L_aligned,mbrola,lab,116,4,test ws,15,3,NA,NA,audio/p6.wav,audio/pp3.wav,part_word,NA,NA,NA,NA,NA,NA,2,1,1.141674507,0.5,NA,4,22,female,undergraduate,physiotherapy,yes,NA,no,NA,NA,yes,NA,no,NA,NA,NA,NA,NA,NA,NA,NA,NA,NA,NA,NA,yes,NA,yes,NA
Exp1 - ws only,brazilian-portuguese,L_aligned,mbrola,lab,116,4,test ws,16,3,NA,NA,audio/p5.wav,audio/pp2.wav,part_word,NA,NA,NA,NA,NA,NA,1,0,0.356970174,0.5,NA,4,22,female,undergraduate,physiotherapy,yes,NA,no,NA,NA,yes,NA,no,NA,NA,NA,NA,NA,NA,NA,NA,NA,NA,NA,NA,yes,NA,yes,NA
Exp1 - ws only,brazilian-portuguese,L_aligned,mbrola,lab,116,4,test ws,17,2,NA,NA,audio/p5.wav,audio/pp2.wav,part_word,NA,NA,NA,NA,NA,NA,1,1,0.308436394,0.5,NA,4,22,female,undergraduate,physiotherapy,yes,NA,no,NA,NA,yes,NA,no,NA,NA,NA,NA,NA,NA,NA,NA,NA,NA,NA,NA,yes,NA,yes,NA
Exp1 - ws only,brazilian-portuguese,L_aligned,mbrola,lab,116,4,test ws,18,2,NA,NA,audio/p6.wav,audio/pp1.wav,part_word,NA,NA,NA,NA,NA,NA,2,0,0.466037187,0.5,NA,4,22,female,undergraduate,physiotherapy,yes,NA,no,NA,NA,yes,NA,no,NA,NA,NA,NA,NA,NA,NA,NA,NA,NA,NA,NA,yes,NA,yes,NA
Exp1 - ws only,brazilian-portuguese,L_aligned,mbrola,lab,116,4,test ws,19,2,NA,NA,audio/p4.wav,audio/pp3.wav,part_word,NA,NA,NA,NA,NA,NA,2,1,0.326439849,0.5,NA,4,22,female,undergraduate,physiotherapy,yes,NA,no,NA,NA,yes,NA,no,NA,NA,NA,NA,NA,NA,NA,NA,NA,NA,NA,NA,yes,NA,yes,NA
Exp1 - ws only,brazilian-portuguese,L_aligned,mbrola,lab,116,4,test ws,20,4,NA,NA,audio/p6.wav,audio/pp3.wav,part_word,NA,NA,NA,NA,NA,NA,2,1,0.400615795,0.5,NA,4,22,female,undergraduate,physiotherapy,yes,NA,no,NA,NA,yes,NA,no,NA,NA,NA,NA,NA,NA,NA,NA,NA,NA,NA,NA,yes,NA,yes,NA
Exp1 - ws only,brazilian-portuguese,L_aligned,mbrola,lab,116,4,test ws,21,4,NA,NA,audio/p5.wav,audio/pp1.wav,part_word,NA,NA,NA,NA,NA,NA,1,1,0.370762274,0.5,NA,4,22,female,undergraduate,physiotherapy,yes,NA,no,NA,NA,yes,NA,no,NA,NA,NA,NA,NA,NA,NA,NA,NA,NA,NA,NA,yes,NA,yes,NA
Exp1 - ws only,brazilian-portuguese,L_aligned,mbrola,lab,116,4,test ws,22,4,NA,NA,audio/p4.wav,audio/pp2.wav,part_word,NA,NA,NA,NA,NA,NA,1,0,0.326595508,0.5,NA,4,22,female,undergraduate,physiotherapy,yes,NA,no,NA,NA,yes,NA,no,NA,NA,NA,NA,NA,NA,NA,NA,NA,NA,NA,NA,yes,NA,yes,NA
Exp1 - ws only,brazilian-portuguese,L_aligned,mbrola,lab,116,4,self evaluation ws,NA,NA,NA,NA,NA,NA,NA,NA,NA,NA,NA,NA,NA,2,NA,3.463738219,NA,NA,4,22,female,undergraduate,physiotherapy,yes,NA,no,NA,NA,yes,NA,no,NA,NA,NA,NA,NA,NA,NA,NA,NA,NA,NA,NA,yes,NA,yes,NA
Exp1 - ws only,brazilian-portuguese,L_aligned,mbrola,lab,116,4,puzzle concentration,NA,NA,NA,NA,NA,NA,NA,NA,NA,NA,NA,NA,NA,3,NA,8.145835685,NA,NA,4,22,female,undergraduate,physiotherapy,yes,NA,no,NA,NA,yes,NA,no,NA,NA,NA,NA,NA,NA,NA,NA,NA,NA,NA,NA,yes,NA,yes,NA
Exp1 - ws only,brazilian-portuguese,L_aligned,mbrola,lab,117,5,warm up ws,NA,NA,NA,NA,audio/bola.wav,audio/sibu.wav,NA,NA,NA,NA,NA,NA,NA,1,1,10.46633197,NA,NA,5,20,female,undergraduate,psychology,yes,NA,no,NA,NA,yes,NA,yes,Spanish,5,7,NA,NA,NA,NA,NA,NA,NA,NA,NA,yes,NA,yes,NA
Exp1 - ws only,brazilian-portuguese,L_aligned,mbrola,lab,117,5,warm up ws,NA,NA,NA,NA,audio/pato.wav,audio/tibo.wav,NA,NA,NA,NA,NA,NA,NA,1,1,1.159196159,NA,NA,5,20,female,undergraduate,psychology,yes,NA,no,NA,NA,yes,NA,yes,Spanish,5,7,NA,NA,NA,NA,NA,NA,NA,NA,NA,yes,NA,yes,NA
Exp1 - ws only,brazilian-portuguese,L_aligned,mbrola,lab,117,5,warm up ws,NA,NA,NA,NA,audio/tela.wav,audio/bafi.wav,NA,NA,NA,NA,NA,NA,NA,2,1,3.64676451,NA,NA,5,20,female,undergraduate,psychology,yes,NA,no,NA,NA,yes,NA,yes,Spanish,5,7,NA,NA,NA,NA,NA,NA,NA,NA,NA,yes,NA,yes,NA
Exp1 - ws only,brazilian-portuguese,L_aligned,mbrola,lab,117,5,warm up ws,NA,NA,NA,NA,audio/cabo.wav,audio/guvi.wav,NA,NA,NA,NA,NA,NA,NA,2,1,0.758069482,NA,NA,5,20,female,undergraduate,psychology,yes,NA,no,NA,NA,yes,NA,yes,Spanish,5,7,NA,NA,NA,NA,NA,NA,NA,NA,NA,yes,NA,yes,NA
Exp1 - ws only,brazilian-portuguese,L_aligned,mbrola,lab,117,5,test ws,5,3,NA,NA,audio/p5.wav,audio/pp2.wav,part_word,NA,NA,NA,NA,NA,NA,2,1,1.070218892,0.5,NA,5,20,female,undergraduate,psychology,yes,NA,no,NA,NA,yes,NA,yes,Spanish,5,7,NA,NA,NA,NA,NA,NA,NA,NA,NA,yes,NA,yes,NA
Exp1 - ws only,brazilian-portuguese,L_aligned,mbrola,lab,117,5,test ws,6,3,NA,NA,audio/p4.wav,audio/pp1.wav,part_word,NA,NA,NA,NA,NA,NA,2,1,0.635928796,0.5,NA,5,20,female,undergraduate,psychology,yes,NA,no,NA,NA,yes,NA,yes,Spanish,5,7,NA,NA,NA,NA,NA,NA,NA,NA,NA,yes,NA,yes,NA
Exp1 - ws only,brazilian-portuguese,L_aligned,mbrola,lab,117,5,test ws,7,3,NA,NA,audio/p6.wav,audio/pp3.wav,part_word,NA,NA,NA,NA,NA,NA,2,1,0.679442705,0.5,NA,5,20,female,undergraduate,psychology,yes,NA,no,NA,NA,yes,NA,yes,Spanish,5,7,NA,NA,NA,NA,NA,NA,NA,NA,NA,yes,NA,yes,NA
Exp1 - ws only,brazilian-portuguese,L_aligned,mbrola,lab,117,5,test ws,8,2,NA,NA,audio/p4.wav,audio/pp3.wav,part_word,NA,NA,NA,NA,NA,NA,2,1,0.479748892,0.5,NA,5,20,female,undergraduate,psychology,yes,NA,no,NA,NA,yes,NA,yes,Spanish,5,7,NA,NA,NA,NA,NA,NA,NA,NA,NA,yes,NA,yes,NA
Exp1 - ws only,brazilian-portuguese,L_aligned,mbrola,lab,117,5,test ws,9,2,NA,NA,audio/p5.wav,audio/pp2.wav,part_word,NA,NA,NA,NA,NA,NA,1,1,0.524841062,0.5,NA,5,20,female,undergraduate,psychology,yes,NA,no,NA,NA,yes,NA,yes,Spanish,5,7,NA,NA,NA,NA,NA,NA,NA,NA,NA,yes,NA,yes,NA
Exp1 - ws only,brazilian-portuguese,L_aligned,mbrola,lab,117,5,test ws,10,2,NA,NA,audio/p6.wav,audio/pp1.wav,part_word,NA,NA,NA,NA,NA,NA,1,1,0.55282439,0.5,NA,5,20,female,undergraduate,psychology,yes,NA,no,NA,NA,yes,NA,yes,Spanish,5,7,NA,NA,NA,NA,NA,NA,NA,NA,NA,yes,NA,yes,NA
Exp1 - ws only,brazilian-portuguese,L_aligned,mbrola,lab,117,5,test ws,11,6,NA,NA,audio/p5.wav,audio/pp3.wav,part_word,NA,NA,NA,NA,NA,NA,2,1,1.8564855199999999,0.5,NA,5,20,female,undergraduate,psychology,yes,NA,no,NA,NA,yes,NA,yes,Spanish,5,7,NA,NA,NA,NA,NA,NA,NA,NA,NA,yes,NA,yes,NA
Exp1 - ws only,brazilian-portuguese,L_aligned,mbrola,lab,117,5,test ws,12,6,NA,NA,audio/p4.wav,audio/pp1.wav,part_word,NA,NA,NA,NA,NA,NA,2,1,0.540988579,0.5,NA,5,20,female,undergraduate,psychology,yes,NA,no,NA,NA,yes,NA,yes,Spanish,5,7,NA,NA,NA,NA,NA,NA,NA,NA,NA,yes,NA,yes,NA
Exp1 - ws only,brazilian-portuguese,L_aligned,mbrola,lab,117,5,test ws,13,6,NA,NA,audio/p6.wav,audio/pp2.wav,part_word,NA,NA,NA,NA,NA,NA,1,1,0.355354282,0.5,NA,5,20,female,undergraduate,psychology,yes,NA,no,NA,NA,yes,NA,yes,Spanish,5,7,NA,NA,NA,NA,NA,NA,NA,NA,NA,yes,NA,yes,NA
Exp1 - ws only,brazilian-portuguese,L_aligned,mbrola,lab,117,5,test ws,14,1,NA,NA,audio/p6.wav,audio/pp1.wav,part_word,NA,NA,NA,NA,NA,NA,1,1,0.928212541,0.5,NA,5,20,female,undergraduate,psychology,yes,NA,no,NA,NA,yes,NA,yes,Spanish,5,7,NA,NA,NA,NA,NA,NA,NA,NA,NA,yes,NA,yes,NA
Exp1 - ws only,brazilian-portuguese,L_aligned,mbrola,lab,117,5,test ws,15,1,NA,NA,audio/p5.wav,audio/pp3.wav,part_word,NA,NA,NA,NA,NA,NA,1,1,1.671623818,0.5,NA,5,20,female,undergraduate,psychology,yes,NA,no,NA,NA,yes,NA,yes,Spanish,5,7,NA,NA,NA,NA,NA,NA,NA,NA,NA,yes,NA,yes,NA
Exp1 - ws only,brazilian-portuguese,L_aligned,mbrola,lab,117,5,test ws,16,1,NA,NA,audio/p4.wav,audio/pp2.wav,part_word,NA,NA,NA,NA,NA,NA,2,1,1.08302173,0.5,NA,5,20,female,undergraduate,psychology,yes,NA,no,NA,NA,yes,NA,yes,Spanish,5,7,NA,NA,NA,NA,NA,NA,NA,NA,NA,yes,NA,yes,NA
Exp1 - ws only,brazilian-portuguese,L_aligned,mbrola,lab,117,5,test ws,17,5,NA,NA,audio/p5.wav,audio/pp2.wav,part_word,NA,NA,NA,NA,NA,NA,1,1,1.389189944,0.5,NA,5,20,female,undergraduate,psychology,yes,NA,no,NA,NA,yes,NA,yes,Spanish,5,7,NA,NA,NA,NA,NA,NA,NA,NA,NA,yes,NA,yes,NA
Exp1 - ws only,brazilian-portuguese,L_aligned,mbrola,lab,117,5,test ws,18,5,NA,NA,audio/p4.wav,audio/pp3.wav,part_word,NA,NA,NA,NA,NA,NA,2,1,2.20729033,0.5,NA,5,20,female,undergraduate,psychology,yes,NA,no,NA,NA,yes,NA,yes,Spanish,5,7,NA,NA,NA,NA,NA,NA,NA,NA,NA,yes,NA,yes,NA
Exp1 - ws only,brazilian-portuguese,L_aligned,mbrola,lab,117,5,test ws,19,5,NA,NA,audio/p6.wav,audio/pp1.wav,part_word,NA,NA,NA,NA,NA,NA,1,1,0.757940051,0.5,NA,5,20,female,undergraduate,psychology,yes,NA,no,NA,NA,yes,NA,yes,Spanish,5,7,NA,NA,NA,NA,NA,NA,NA,NA,NA,yes,NA,yes,NA
Exp1 - ws only,brazilian-portuguese,L_aligned,mbrola,lab,117,5,test ws,20,4,NA,NA,audio/p5.wav,audio/pp1.wav,part_word,NA,NA,NA,NA,NA,NA,1,1,0.371329034,0.5,NA,5,20,female,undergraduate,psychology,yes,NA,no,NA,NA,yes,NA,yes,Spanish,5,7,NA,NA,NA,NA,NA,NA,NA,NA,NA,yes,NA,yes,NA
Exp1 - ws only,brazilian-portuguese,L_aligned,mbrola,lab,117,5,test ws,21,4,NA,NA,audio/p6.wav,audio/pp3.wav,part_word,NA,NA,NA,NA,NA,NA,2,1,1.719188861,0.5,NA,5,20,female,undergraduate,psychology,yes,NA,no,NA,NA,yes,NA,yes,Spanish,5,7,NA,NA,NA,NA,NA,NA,NA,NA,NA,yes,NA,yes,NA
Exp1 - ws only,brazilian-portuguese,L_aligned,mbrola,lab,117,5,test ws,22,4,NA,NA,audio/p4.wav,audio/pp2.wav,part_word,NA,NA,NA,NA,NA,NA,2,1,2.905266759,0.5,NA,5,20,female,undergraduate,psychology,yes,NA,no,NA,NA,yes,NA,yes,Spanish,5,7,NA,NA,NA,NA,NA,NA,NA,NA,NA,yes,NA,yes,NA
Exp1 - ws only,brazilian-portuguese,L_aligned,mbrola,lab,117,5,self evaluation ws,NA,NA,NA,NA,NA,NA,NA,NA,NA,NA,NA,NA,NA,3,NA,4.32915733,NA,NA,5,20,female,undergraduate,psychology,yes,NA,no,NA,NA,yes,NA,yes,Spanish,5,7,NA,NA,NA,NA,NA,NA,NA,NA,NA,yes,NA,yes,NA
Exp1 - ws only,brazilian-portuguese,L_aligned,mbrola,lab,117,5,puzzle concentration,NA,NA,NA,NA,NA,NA,NA,NA,NA,NA,NA,NA,NA,3,NA,4.219495618,NA,NA,5,20,female,undergraduate,psychology,yes,NA,no,NA,NA,yes,NA,yes,Spanish,5,7,NA,NA,NA,NA,NA,NA,NA,NA,NA,yes,NA,yes,NA
Exp1 - ws only,brazilian-portuguese,L_aligned,mbrola,lab,118,6,warm up ws,NA,NA,NA,NA,audio/cabo.wav,audio/guvi.wav,NA,NA,NA,NA,NA,NA,NA,2,1,2.995848514,NA,NA,6,24,female,undergraduate,chemistry,no,Japan,yes,12,21,yes,NA,yes,Spanish,6,6,Italian,4,13,Japanese,2,20,NA,NA,NA,yes,NA,no,glaucoma on right eye
Exp1 - ws only,brazilian-portuguese,L_aligned,mbrola,lab,118,6,warm up ws,NA,NA,NA,NA,audio/tela.wav,audio/bafi.wav,NA,NA,NA,NA,NA,NA,NA,2,1,0.788744633,NA,NA,6,24,female,undergraduate,chemistry,no,Japan,yes,12,21,yes,NA,yes,Spanish,6,6,Italian,4,13,Japanese,2,20,NA,NA,NA,yes,NA,no,glaucoma on right eye
Exp1 - ws only,brazilian-portuguese,L_aligned,mbrola,lab,118,6,warm up ws,NA,NA,NA,NA,audio/pato.wav,audio/tibo.wav,NA,NA,NA,NA,NA,NA,NA,1,1,1.545601341,NA,NA,6,24,female,undergraduate,chemistry,no,Japan,yes,12,21,yes,NA,yes,Spanish,6,6,Italian,4,13,Japanese,2,20,NA,NA,NA,yes,NA,no,glaucoma on right eye
Exp1 - ws only,brazilian-portuguese,L_aligned,mbrola,lab,118,6,warm up ws,NA,NA,NA,NA,audio/bola.wav,audio/sibu.wav,NA,NA,NA,NA,NA,NA,NA,1,1,4.246806703,NA,NA,6,24,female,undergraduate,chemistry,no,Japan,yes,12,21,yes,NA,yes,Spanish,6,6,Italian,4,13,Japanese,2,20,NA,NA,NA,yes,NA,no,glaucoma on right eye
Exp1 - ws only,brazilian-portuguese,L_aligned,mbrola,lab,118,6,test ws,5,5,NA,NA,audio/p6.wav,audio/pp1.wav,part_word,NA,NA,NA,NA,NA,NA,1,1,0.448039434,0.5,NA,6,24,female,undergraduate,chemistry,no,Japan,yes,12,21,yes,NA,yes,Spanish,6,6,Italian,4,13,Japanese,2,20,NA,NA,NA,yes,NA,no,glaucoma on right eye
Exp1 - ws only,brazilian-portuguese,L_aligned,mbrola,lab,118,6,test ws,6,5,NA,NA,audio/p4.wav,audio/pp3.wav,part_word,NA,NA,NA,NA,NA,NA,2,1,0.448566851,0.5,NA,6,24,female,undergraduate,chemistry,no,Japan,yes,12,21,yes,NA,yes,Spanish,6,6,Italian,4,13,Japanese,2,20,NA,NA,NA,yes,NA,no,glaucoma on right eye
Exp1 - ws only,brazilian-portuguese,L_aligned,mbrola,lab,118,6,test ws,7,5,NA,NA,audio/p5.wav,audio/pp2.wav,part_word,NA,NA,NA,NA,NA,NA,1,1,0.494079814,0.5,NA,6,24,female,undergraduate,chemistry,no,Japan,yes,12,21,yes,NA,yes,Spanish,6,6,Italian,4,13,Japanese,2,20,NA,NA,NA,yes,NA,no,glaucoma on right eye
Exp1 - ws only,brazilian-portuguese,L_aligned,mbrola,lab,118,6,test ws,8,1,NA,NA,audio/p5.wav,audio/pp3.wav,part_word,NA,NA,NA,NA,NA,NA,1,1,5.161224292,0.5,NA,6,24,female,undergraduate,chemistry,no,Japan,yes,12,21,yes,NA,yes,Spanish,6,6,Italian,4,13,Japanese,2,20,NA,NA,NA,yes,NA,no,glaucoma on right eye
Exp1 - ws only,brazilian-portuguese,L_aligned,mbrola,lab,118,6,test ws,9,1,NA,NA,audio/p6.wav,audio/pp1.wav,part_word,NA,NA,NA,NA,NA,NA,1,1,0.155944989,0.5,NA,6,24,female,undergraduate,chemistry,no,Japan,yes,12,21,yes,NA,yes,Spanish,6,6,Italian,4,13,Japanese,2,20,NA,NA,NA,yes,NA,no,glaucoma on right eye
Exp1 - ws only,brazilian-portuguese,L_aligned,mbrola,lab,118,6,test ws,10,1,NA,NA,audio/p4.wav,audio/pp2.wav,part_word,NA,NA,NA,NA,NA,NA,2,1,0.217866042,0.5,NA,6,24,female,undergraduate,chemistry,no,Japan,yes,12,21,yes,NA,yes,Spanish,6,6,Italian,4,13,Japanese,2,20,NA,NA,NA,yes,NA,no,glaucoma on right eye
Exp1 - ws only,brazilian-portuguese,L_aligned,mbrola,lab,118,6,test ws,11,2,NA,NA,audio/p5.wav,audio/pp2.wav,part_word,NA,NA,NA,NA,NA,NA,1,1,0.433252938,0.5,NA,6,24,female,undergraduate,chemistry,no,Japan,yes,12,21,yes,NA,yes,Spanish,6,6,Italian,4,13,Japanese,2,20,NA,NA,NA,yes,NA,no,glaucoma on right eye
Exp1 - ws only,brazilian-portuguese,L_aligned,mbrola,lab,118,6,test ws,12,2,NA,NA,audio/p4.wav,audio/pp3.wav,part_word,NA,NA,NA,NA,NA,NA,2,1,0.340444627,0.5,NA,6,24,female,undergraduate,chemistry,no,Japan,yes,12,21,yes,NA,yes,Spanish,6,6,Italian,4,13,Japanese,2,20,NA,NA,NA,yes,NA,no,glaucoma on right eye
Exp1 - ws only,brazilian-portuguese,L_aligned,mbrola,lab,118,6,test ws,13,2,NA,NA,audio/p6.wav,audio/pp1.wav,part_word,NA,NA,NA,NA,NA,NA,1,1,0.309441052,0.5,NA,6,24,female,undergraduate,chemistry,no,Japan,yes,12,21,yes,NA,yes,Spanish,6,6,Italian,4,13,Japanese,2,20,NA,NA,NA,yes,NA,no,glaucoma on right eye
Exp1 - ws only,brazilian-portuguese,L_aligned,mbrola,lab,118,6,test ws,14,4,NA,NA,audio/p5.wav,audio/pp1.wav,part_word,NA,NA,NA,NA,NA,NA,1,1,0.324404874,0.5,NA,6,24,female,undergraduate,chemistry,no,Japan,yes,12,21,yes,NA,yes,Spanish,6,6,Italian,4,13,Japanese,2,20,NA,NA,NA,yes,NA,no,glaucoma on right eye
Exp1 - ws only,brazilian-portuguese,L_aligned,mbrola,lab,118,6,test ws,15,4,NA,NA,audio/p6.wav,audio/pp3.wav,part_word,NA,NA,NA,NA,NA,NA,2,1,0.463045449,0.5,NA,6,24,female,undergraduate,chemistry,no,Japan,yes,12,21,yes,NA,yes,Spanish,6,6,Italian,4,13,Japanese,2,20,NA,NA,NA,yes,NA,no,glaucoma on right eye
Exp1 - ws only,brazilian-portuguese,L_aligned,mbrola,lab,118,6,test ws,16,4,NA,NA,audio/p4.wav,audio/pp2.wav,part_word,NA,NA,NA,NA,NA,NA,2,1,0.231829197,0.5,NA,6,24,female,undergraduate,chemistry,no,Japan,yes,12,21,yes,NA,yes,Spanish,6,6,Italian,4,13,Japanese,2,20,NA,NA,NA,yes,NA,no,glaucoma on right eye
Exp1 - ws only,brazilian-portuguese,L_aligned,mbrola,lab,118,6,test ws,17,6,NA,NA,audio/p5.wav,audio/pp3.wav,part_word,NA,NA,NA,NA,NA,NA,2,1,0.35522257,0.5,NA,6,24,female,undergraduate,chemistry,no,Japan,yes,12,21,yes,NA,yes,Spanish,6,6,Italian,4,13,Japanese,2,20,NA,NA,NA,yes,NA,no,glaucoma on right eye
Exp1 - ws only,brazilian-portuguese,L_aligned,mbrola,lab,118,6,test ws,18,6,NA,NA,audio/p6.wav,audio/pp2.wav,part_word,NA,NA,NA,NA,NA,NA,1,1,0.264795334,0.5,NA,6,24,female,undergraduate,chemistry,no,Japan,yes,12,21,yes,NA,yes,Spanish,6,6,Italian,4,13,Japanese,2,20,NA,NA,NA,yes,NA,no,glaucoma on right eye
Exp1 - ws only,brazilian-portuguese,L_aligned,mbrola,lab,118,6,test ws,19,6,NA,NA,audio/p4.wav,audio/pp1.wav,part_word,NA,NA,NA,NA,NA,NA,2,1,0.185432454,0.5,NA,6,24,female,undergraduate,chemistry,no,Japan,yes,12,21,yes,NA,yes,Spanish,6,6,Italian,4,13,Japanese,2,20,NA,NA,NA,yes,NA,no,glaucoma on right eye
Exp1 - ws only,brazilian-portuguese,L_aligned,mbrola,lab,118,6,test ws,20,3,NA,NA,audio/p5.wav,audio/pp2.wav,part_word,NA,NA,NA,NA,NA,NA,2,1,0.185626885,0.5,NA,6,24,female,undergraduate,chemistry,no,Japan,yes,12,21,yes,NA,yes,Spanish,6,6,Italian,4,13,Japanese,2,20,NA,NA,NA,yes,NA,no,glaucoma on right eye
Exp1 - ws only,brazilian-portuguese,L_aligned,mbrola,lab,118,6,test ws,21,3,NA,NA,audio/p6.wav,audio/pp3.wav,part_word,NA,NA,NA,NA,NA,NA,2,1,0.386977073,0.5,NA,6,24,female,undergraduate,chemistry,no,Japan,yes,12,21,yes,NA,yes,Spanish,6,6,Italian,4,13,Japanese,2,20,NA,NA,NA,yes,NA,no,glaucoma on right eye
Exp1 - ws only,brazilian-portuguese,L_aligned,mbrola,lab,118,6,test ws,22,3,NA,NA,audio/p4.wav,audio/pp1.wav,part_word,NA,NA,NA,NA,NA,NA,2,1,0.340664146,0.5,NA,6,24,female,undergraduate,chemistry,no,Japan,yes,12,21,yes,NA,yes,Spanish,6,6,Italian,4,13,Japanese,2,20,NA,NA,NA,yes,NA,no,glaucoma on right eye
Exp1 - ws only,brazilian-portuguese,L_aligned,mbrola,lab,118,6,self evaluation ws,NA,NA,NA,NA,NA,NA,NA,NA,NA,NA,NA,NA,NA,3,NA,10.02978567,NA,NA,6,24,female,undergraduate,chemistry,no,Japan,yes,12,21,yes,NA,yes,Spanish,6,6,Italian,4,13,Japanese,2,20,NA,NA,NA,yes,NA,no,glaucoma on right eye
Exp1 - ws only,brazilian-portuguese,L_aligned,mbrola,lab,118,6,puzzle concentration,NA,NA,NA,NA,NA,NA,NA,NA,NA,NA,NA,NA,NA,4,NA,20.79711831,NA,NA,6,24,female,undergraduate,chemistry,no,Japan,yes,12,21,yes,NA,yes,Spanish,6,6,Italian,4,13,Japanese,2,20,NA,NA,NA,yes,NA,no,glaucoma on right eye
Exp1 - ws only,brazilian-portuguese,L_aligned,mbrola,lab,119,7,warm up ws,NA,NA,NA,NA,audio/tela.wav,audio/bafi.wav,NA,NA,NA,NA,NA,NA,NA,2,1,2.27374489,NA,NA,7,26,male,undergraduate,linguistics,yes,NA,no,NA,NA,yes,NA,yes,Spanish,6,8,German,5,16,English,4,14,Norwegian,3,16,yes,NA,yes,NA
Exp1 - ws only,brazilian-portuguese,L_aligned,mbrola,lab,119,7,warm up ws,NA,NA,NA,NA,audio/bola.wav,audio/sibu.wav,NA,NA,NA,NA,NA,NA,NA,2,0,3.494964164,NA,NA,7,26,male,undergraduate,linguistics,yes,NA,no,NA,NA,yes,NA,yes,Spanish,6,8,German,5,16,English,4,14,Norwegian,3,16,yes,NA,yes,NA
Exp1 - ws only,brazilian-portuguese,L_aligned,mbrola,lab,119,7,warm up ws,NA,NA,NA,NA,audio/cabo.wav,audio/guvi.wav,NA,NA,NA,NA,NA,NA,NA,2,1,0.882159616,NA,NA,7,26,male,undergraduate,linguistics,yes,NA,no,NA,NA,yes,NA,yes,Spanish,6,8,German,5,16,English,4,14,Norwegian,3,16,yes,NA,yes,NA
Exp1 - ws only,brazilian-portuguese,L_aligned,mbrola,lab,119,7,warm up ws,NA,NA,NA,NA,audio/pato.wav,audio/tibo.wav,NA,NA,NA,NA,NA,NA,NA,1,1,0.865926002,NA,NA,7,26,male,undergraduate,linguistics,yes,NA,no,NA,NA,yes,NA,yes,Spanish,6,8,German,5,16,English,4,14,Norwegian,3,16,yes,NA,yes,NA
Exp1 - ws only,brazilian-portuguese,L_aligned,mbrola,lab,119,7,test ws,5,5,NA,NA,audio/p6.wav,audio/pp1.wav,part_word,NA,NA,NA,NA,NA,NA,2,0,1.111449228,0.5,NA,7,26,male,undergraduate,linguistics,yes,NA,no,NA,NA,yes,NA,yes,Spanish,6,8,German,5,16,English,4,14,Norwegian,3,16,yes,NA,yes,NA
Exp1 - ws only,brazilian-portuguese,L_aligned,mbrola,lab,119,7,test ws,6,5,NA,NA,audio/p5.wav,audio/pp2.wav,part_word,NA,NA,NA,NA,NA,NA,1,1,0.926276777,0.5,NA,7,26,male,undergraduate,linguistics,yes,NA,no,NA,NA,yes,NA,yes,Spanish,6,8,German,5,16,English,4,14,Norwegian,3,16,yes,NA,yes,NA
Exp1 - ws only,brazilian-portuguese,L_aligned,mbrola,lab,119,7,test ws,7,5,NA,NA,audio/p4.wav,audio/pp3.wav,part_word,NA,NA,NA,NA,NA,NA,1,0,1.683854764,0.5,NA,7,26,male,undergraduate,linguistics,yes,NA,no,NA,NA,yes,NA,yes,Spanish,6,8,German,5,16,English,4,14,Norwegian,3,16,yes,NA,yes,NA
Exp1 - ws only,brazilian-portuguese,L_aligned,mbrola,lab,119,7,test ws,8,2,NA,NA,audio/p6.wav,audio/pp1.wav,part_word,NA,NA,NA,NA,NA,NA,2,0,1.407789238,0.5,NA,7,26,male,undergraduate,linguistics,yes,NA,no,NA,NA,yes,NA,yes,Spanish,6,8,German,5,16,English,4,14,Norwegian,3,16,yes,NA,yes,NA
Exp1 - ws only,brazilian-portuguese,L_aligned,mbrola,lab,119,7,test ws,9,2,NA,NA,audio/p5.wav,audio/pp2.wav,part_word,NA,NA,NA,NA,NA,NA,1,1,1.080661181,0.5,NA,7,26,male,undergraduate,linguistics,yes,NA,no,NA,NA,yes,NA,yes,Spanish,6,8,German,5,16,English,4,14,Norwegian,3,16,yes,NA,yes,NA
Exp1 - ws only,brazilian-portuguese,L_aligned,mbrola,lab,119,7,test ws,10,2,NA,NA,audio/p4.wav,audio/pp3.wav,part_word,NA,NA,NA,NA,NA,NA,1,0,0.370950434,0.5,NA,7,26,male,undergraduate,linguistics,yes,NA,no,NA,NA,yes,NA,yes,Spanish,6,8,German,5,16,English,4,14,Norwegian,3,16,yes,NA,yes,NA
Exp1 - ws only,brazilian-portuguese,L_aligned,mbrola,lab,119,7,test ws,11,3,NA,NA,audio/p5.wav,audio/pp2.wav,part_word,NA,NA,NA,NA,NA,NA,2,1,0.512261736,0.5,NA,7,26,male,undergraduate,linguistics,yes,NA,no,NA,NA,yes,NA,yes,Spanish,6,8,German,5,16,English,4,14,Norwegian,3,16,yes,NA,yes,NA
Exp1 - ws only,brazilian-portuguese,L_aligned,mbrola,lab,119,7,test ws,12,3,NA,NA,audio/p4.wav,audio/pp1.wav,part_word,NA,NA,NA,NA,NA,NA,1,0,0.30940399,0.5,NA,7,26,male,undergraduate,linguistics,yes,NA,no,NA,NA,yes,NA,yes,Spanish,6,8,German,5,16,English,4,14,Norwegian,3,16,yes,NA,yes,NA
Exp1 - ws only,brazilian-portuguese,L_aligned,mbrola,lab,119,7,test ws,13,3,NA,NA,audio/p6.wav,audio/pp3.wav,part_word,NA,NA,NA,NA,NA,NA,1,0,0.773835549,0.5,NA,7,26,male,undergraduate,linguistics,yes,NA,no,NA,NA,yes,NA,yes,Spanish,6,8,German,5,16,English,4,14,Norwegian,3,16,yes,NA,yes,NA
Exp1 - ws only,brazilian-portuguese,L_aligned,mbrola,lab,119,7,test ws,14,6,NA,NA,audio/p4.wav,audio/pp1.wav,part_word,NA,NA,NA,NA,NA,NA,1,0,0.495410616,0.5,NA,7,26,male,undergraduate,linguistics,yes,NA,no,NA,NA,yes,NA,yes,Spanish,6,8,German,5,16,English,4,14,Norwegian,3,16,yes,NA,yes,NA
Exp1 - ws only,brazilian-portuguese,L_aligned,mbrola,lab,119,7,test ws,15,6,NA,NA,audio/p6.wav,audio/pp2.wav,part_word,NA,NA,NA,NA,NA,NA,1,1,1.314666188,0.5,NA,7,26,male,undergraduate,linguistics,yes,NA,no,NA,NA,yes,NA,yes,Spanish,6,8,German,5,16,English,4,14,Norwegian,3,16,yes,NA,yes,NA
Exp1 - ws only,brazilian-portuguese,L_aligned,mbrola,lab,119,7,test ws,16,6,NA,NA,audio/p5.wav,audio/pp3.wav,part_word,NA,NA,NA,NA,NA,NA,1,0,2.41259187,0.5,NA,7,26,male,undergraduate,linguistics,yes,NA,no,NA,NA,yes,NA,yes,Spanish,6,8,German,5,16,English,4,14,Norwegian,3,16,yes,NA,yes,NA
Exp1 - ws only,brazilian-portuguese,L_aligned,mbrola,lab,119,7,test ws,17,4,NA,NA,audio/p4.wav,audio/pp2.wav,part_word,NA,NA,NA,NA,NA,NA,2,1,2.814811584,0.5,NA,7,26,male,undergraduate,linguistics,yes,NA,no,NA,NA,yes,NA,yes,Spanish,6,8,German,5,16,English,4,14,Norwegian,3,16,yes,NA,yes,NA
Exp1 - ws only,brazilian-portuguese,L_aligned,mbrola,lab,119,7,test ws,18,4,NA,NA,audio/p5.wav,audio/pp1.wav,part_word,NA,NA,NA,NA,NA,NA,2,0,5.813143235,0.5,NA,7,26,male,undergraduate,linguistics,yes,NA,no,NA,NA,yes,NA,yes,Spanish,6,8,German,5,16,English,4,14,Norwegian,3,16,yes,NA,yes,NA
Exp1 - ws only,brazilian-portuguese,L_aligned,mbrola,lab,119,7,test ws,19,4,NA,NA,audio/p6.wav,audio/pp3.wav,part_word,NA,NA,NA,NA,NA,NA,1,0,0.880739296,0.5,NA,7,26,male,undergraduate,linguistics,yes,NA,no,NA,NA,yes,NA,yes,Spanish,6,8,German,5,16,English,4,14,Norwegian,3,16,yes,NA,yes,NA
Exp1 - ws only,brazilian-portuguese,L_aligned,mbrola,lab,119,7,test ws,20,1,NA,NA,audio/p6.wav,audio/pp1.wav,part_word,NA,NA,NA,NA,NA,NA,2,0,3.510400096,0.5,NA,7,26,male,undergraduate,linguistics,yes,NA,no,NA,NA,yes,NA,yes,Spanish,6,8,German,5,16,English,4,14,Norwegian,3,16,yes,NA,yes,NA
Exp1 - ws only,brazilian-portuguese,L_aligned,mbrola,lab,119,7,test ws,21,1,NA,NA,audio/p4.wav,audio/pp2.wav,part_word,NA,NA,NA,NA,NA,NA,2,1,0.277982473,0.5,NA,7,26,male,undergraduate,linguistics,yes,NA,no,NA,NA,yes,NA,yes,Spanish,6,8,German,5,16,English,4,14,Norwegian,3,16,yes,NA,yes,NA
Exp1 - ws only,brazilian-portuguese,L_aligned,mbrola,lab,119,7,test ws,22,1,NA,NA,audio/p5.wav,audio/pp3.wav,part_word,NA,NA,NA,NA,NA,NA,2,0,1.976051841,0.5,NA,7,26,male,undergraduate,linguistics,yes,NA,no,NA,NA,yes,NA,yes,Spanish,6,8,German,5,16,English,4,14,Norwegian,3,16,yes,NA,yes,NA
Exp1 - ws only,brazilian-portuguese,L_aligned,mbrola,lab,119,7,self evaluation ws,NA,NA,NA,NA,NA,NA,NA,NA,NA,NA,NA,NA,NA,1,NA,3.858338037,NA,NA,7,26,male,undergraduate,linguistics,yes,NA,no,NA,NA,yes,NA,yes,Spanish,6,8,German,5,16,English,4,14,Norwegian,3,16,yes,NA,yes,NA
Exp1 - ws only,brazilian-portuguese,L_aligned,mbrola,lab,119,7,puzzle concentration,NA,NA,NA,NA,NA,NA,NA,NA,NA,NA,NA,NA,NA,3,NA,3.942552015,NA,NA,7,26,male,undergraduate,linguistics,yes,NA,no,NA,NA,yes,NA,yes,Spanish,6,8,German,5,16,English,4,14,Norwegian,3,16,yes,NA,yes,NA
Exp1 - ws only,brazilian-portuguese,L_aligned,mbrola,lab,120,8,warm up ws,NA,NA,NA,NA,audio/bola.wav,audio/sibu.wav,NA,NA,NA,NA,NA,NA,NA,2,0,2.407670071,NA,NA,8,22,male,undergraduate,psychology,yes,NA,no,NA,NA,yes,NA,yes,Spanish,2,10,French,1,19,NA,NA,NA,NA,NA,NA,yes,NA,yes,NA
Exp1 - ws only,brazilian-portuguese,L_aligned,mbrola,lab,120,8,warm up ws,NA,NA,NA,NA,audio/cabo.wav,audio/guvi.wav,NA,NA,NA,NA,NA,NA,NA,2,1,1.189479596,NA,NA,8,22,male,undergraduate,psychology,yes,NA,no,NA,NA,yes,NA,yes,Spanish,2,10,French,1,19,NA,NA,NA,NA,NA,NA,yes,NA,yes,NA
Exp1 - ws only,brazilian-portuguese,L_aligned,mbrola,lab,120,8,warm up ws,NA,NA,NA,NA,audio/pato.wav,audio/tibo.wav,NA,NA,NA,NA,NA,NA,NA,1,1,0.6186489,NA,NA,8,22,male,undergraduate,psychology,yes,NA,no,NA,NA,yes,NA,yes,Spanish,2,10,French,1,19,NA,NA,NA,NA,NA,NA,yes,NA,yes,NA
Exp1 - ws only,brazilian-portuguese,L_aligned,mbrola,lab,120,8,warm up ws,NA,NA,NA,NA,audio/tela.wav,audio/bafi.wav,NA,NA,NA,NA,NA,NA,NA,2,1,1.517047262,NA,NA,8,22,male,undergraduate,psychology,yes,NA,no,NA,NA,yes,NA,yes,Spanish,2,10,French,1,19,NA,NA,NA,NA,NA,NA,yes,NA,yes,NA
Exp1 - ws only,brazilian-portuguese,L_aligned,mbrola,lab,120,8,test ws,5,3,NA,NA,audio/p5.wav,audio/pp2.wav,part_word,NA,NA,NA,NA,NA,NA,2,1,0.403300776,0.5,NA,8,22,male,undergraduate,psychology,yes,NA,no,NA,NA,yes,NA,yes,Spanish,2,10,French,1,19,NA,NA,NA,NA,NA,NA,yes,NA,yes,NA
Exp1 - ws only,brazilian-portuguese,L_aligned,mbrola,lab,120,8,test ws,6,3,NA,NA,audio/p6.wav,audio/pp3.wav,part_word,NA,NA,NA,NA,NA,NA,2,1,0.294863812,0.5,NA,8,22,male,undergraduate,psychology,yes,NA,no,NA,NA,yes,NA,yes,Spanish,2,10,French,1,19,NA,NA,NA,NA,NA,NA,yes,NA,yes,NA
Exp1 - ws only,brazilian-portuguese,L_aligned,mbrola,lab,120,8,test ws,7,3,NA,NA,audio/p4.wav,audio/pp1.wav,part_word,NA,NA,NA,NA,NA,NA,2,1,0.463966861,0.5,NA,8,22,male,undergraduate,psychology,yes,NA,no,NA,NA,yes,NA,yes,Spanish,2,10,French,1,19,NA,NA,NA,NA,NA,NA,yes,NA,yes,NA
Exp1 - ws only,brazilian-portuguese,L_aligned,mbrola,lab,120,8,test ws,8,6,NA,NA,audio/p4.wav,audio/pp1.wav,part_word,NA,NA,NA,NA,NA,NA,2,1,0.417693277,0.5,NA,8,22,male,undergraduate,psychology,yes,NA,no,NA,NA,yes,NA,yes,Spanish,2,10,French,1,19,NA,NA,NA,NA,NA,NA,yes,NA,yes,NA
Exp1 - ws only,brazilian-portuguese,L_aligned,mbrola,lab,120,8,test ws,9,6,NA,NA,audio/p6.wav,audio/pp2.wav,part_word,NA,NA,NA,NA,NA,NA,1,1,0.216621337,0.5,NA,8,22,male,undergraduate,psychology,yes,NA,no,NA,NA,yes,NA,yes,Spanish,2,10,French,1,19,NA,NA,NA,NA,NA,NA,yes,NA,yes,NA
Exp1 - ws only,brazilian-portuguese,L_aligned,mbrola,lab,120,8,test ws,10,6,NA,NA,audio/p5.wav,audio/pp3.wav,part_word,NA,NA,NA,NA,NA,NA,2,1,0.293397878,0.5,NA,8,22,male,undergraduate,psychology,yes,NA,no,NA,NA,yes,NA,yes,Spanish,2,10,French,1,19,NA,NA,NA,NA,NA,NA,yes,NA,yes,NA
Exp1 - ws only,brazilian-portuguese,L_aligned,mbrola,lab,120,8,test ws,11,5,NA,NA,audio/p4.wav,audio/pp3.wav,part_word,NA,NA,NA,NA,NA,NA,2,1,0.294104902,0.5,NA,8,22,male,undergraduate,psychology,yes,NA,no,NA,NA,yes,NA,yes,Spanish,2,10,French,1,19,NA,NA,NA,NA,NA,NA,yes,NA,yes,NA
Exp1 - ws only,brazilian-portuguese,L_aligned,mbrola,lab,120,8,test ws,12,5,NA,NA,audio/p5.wav,audio/pp2.wav,part_word,NA,NA,NA,NA,NA,NA,1,1,0.150113181,0.5,NA,8,22,male,undergraduate,psychology,yes,NA,no,NA,NA,yes,NA,yes,Spanish,2,10,French,1,19,NA,NA,NA,NA,NA,NA,yes,NA,yes,NA
Exp1 - ws only,brazilian-portuguese,L_aligned,mbrola,lab,120,8,test ws,13,5,NA,NA,audio/p6.wav,audio/pp1.wav,part_word,NA,NA,NA,NA,NA,NA,1,1,0.308954688,0.5,NA,8,22,male,undergraduate,psychology,yes,NA,no,NA,NA,yes,NA,yes,Spanish,2,10,French,1,19,NA,NA,NA,NA,NA,NA,yes,NA,yes,NA
Exp1 - ws only,brazilian-portuguese,L_aligned,mbrola,lab,120,8,test ws,14,4,NA,NA,audio/p5.wav,audio/pp1.wav,part_word,NA,NA,NA,NA,NA,NA,1,1,0.352782197,0.5,NA,8,22,male,undergraduate,psychology,yes,NA,no,NA,NA,yes,NA,yes,Spanish,2,10,French,1,19,NA,NA,NA,NA,NA,NA,yes,NA,yes,NA
Exp1 - ws only,brazilian-portuguese,L_aligned,mbrola,lab,120,8,test ws,15,4,NA,NA,audio/p4.wav,audio/pp2.wav,part_word,NA,NA,NA,NA,NA,NA,2,1,1.084069151,0.5,NA,8,22,male,undergraduate,psychology,yes,NA,no,NA,NA,yes,NA,yes,Spanish,2,10,French,1,19,NA,NA,NA,NA,NA,NA,yes,NA,yes,NA
Exp1 - ws only,brazilian-portuguese,L_aligned,mbrola,lab,120,8,test ws,16,4,NA,NA,audio/p6.wav,audio/pp3.wav,part_word,NA,NA,NA,NA,NA,NA,2,1,0.307910687,0.5,NA,8,22,male,undergraduate,psychology,yes,NA,no,NA,NA,yes,NA,yes,Spanish,2,10,French,1,19,NA,NA,NA,NA,NA,NA,yes,NA,yes,NA
Exp1 - ws only,brazilian-portuguese,L_aligned,mbrola,lab,120,8,test ws,17,2,NA,NA,audio/p4.wav,audio/pp3.wav,part_word,NA,NA,NA,NA,NA,NA,2,1,0.308718633,0.5,NA,8,22,male,undergraduate,psychology,yes,NA,no,NA,NA,yes,NA,yes,Spanish,2,10,French,1,19,NA,NA,NA,NA,NA,NA,yes,NA,yes,NA
Exp1 - ws only,brazilian-portuguese,L_aligned,mbrola,lab,120,8,test ws,18,2,NA,NA,audio/p5.wav,audio/pp2.wav,part_word,NA,NA,NA,NA,NA,NA,1,1,0.29293204,0.5,NA,8,22,male,undergraduate,psychology,yes,NA,no,NA,NA,yes,NA,yes,Spanish,2,10,French,1,19,NA,NA,NA,NA,NA,NA,yes,NA,yes,NA
Exp1 - ws only,brazilian-portuguese,L_aligned,mbrola,lab,120,8,test ws,19,2,NA,NA,audio/p6.wav,audio/pp1.wav,part_word,NA,NA,NA,NA,NA,NA,1,1,0.278310327,0.5,NA,8,22,male,undergraduate,psychology,yes,NA,no,NA,NA,yes,NA,yes,Spanish,2,10,French,1,19,NA,NA,NA,NA,NA,NA,yes,NA,yes,NA
Exp1 - ws only,brazilian-portuguese,L_aligned,mbrola,lab,120,8,test ws,20,1,NA,NA,audio/p4.wav,audio/pp2.wav,part_word,NA,NA,NA,NA,NA,NA,2,1,0.371844477,0.5,NA,8,22,male,undergraduate,psychology,yes,NA,no,NA,NA,yes,NA,yes,Spanish,2,10,French,1,19,NA,NA,NA,NA,NA,NA,yes,NA,yes,NA
Exp1 - ws only,brazilian-portuguese,L_aligned,mbrola,lab,120,8,test ws,21,1,NA,NA,audio/p6.wav,audio/pp1.wav,part_word,NA,NA,NA,NA,NA,NA,1,1,0.247895748,0.5,NA,8,22,male,undergraduate,psychology,yes,NA,no,NA,NA,yes,NA,yes,Spanish,2,10,French,1,19,NA,NA,NA,NA,NA,NA,yes,NA,yes,NA
Exp1 - ws only,brazilian-portuguese,L_aligned,mbrola,lab,120,8,test ws,22,1,NA,NA,audio/p5.wav,audio/pp3.wav,part_word,NA,NA,NA,NA,NA,NA,1,1,0.309567062,0.5,NA,8,22,male,undergraduate,psychology,yes,NA,no,NA,NA,yes,NA,yes,Spanish,2,10,French,1,19,NA,NA,NA,NA,NA,NA,yes,NA,yes,NA
Exp1 - ws only,brazilian-portuguese,L_aligned,mbrola,lab,120,8,self evaluation ws,NA,NA,NA,NA,NA,NA,NA,NA,NA,NA,NA,NA,NA,4,NA,3.741428759,NA,NA,8,22,male,undergraduate,psychology,yes,NA,no,NA,NA,yes,NA,yes,Spanish,2,10,French,1,19,NA,NA,NA,NA,NA,NA,yes,NA,yes,NA
Exp1 - ws only,brazilian-portuguese,L_aligned,mbrola,lab,120,8,puzzle concentration,NA,NA,NA,NA,NA,NA,NA,NA,NA,NA,NA,NA,NA,3,NA,7.090451184,NA,NA,8,22,male,undergraduate,psychology,yes,NA,no,NA,NA,yes,NA,yes,Spanish,2,10,French,1,19,NA,NA,NA,NA,NA,NA,yes,NA,yes,NA
Exp1 - ws only,brazilian-portuguese,L_aligned,mbrola,lab,121,9,warm up ws,NA,NA,NA,NA,audio/bola.wav,audio/sibu.wav,NA,NA,NA,NA,NA,NA,NA,2,0,2.258860893,NA,NA,9,23,male,graduate,psychology,yes,NA,no,NA,NA,yes,NA,yes,Spanish,5,10,NA,NA,NA,NA,NA,NA,NA,NA,NA,yes,NA,yes,NA
Exp1 - ws only,brazilian-portuguese,L_aligned,mbrola,lab,121,9,warm up ws,NA,NA,NA,NA,audio/cabo.wav,audio/guvi.wav,NA,NA,NA,NA,NA,NA,NA,2,1,2.077605013,NA,NA,9,23,male,graduate,psychology,yes,NA,no,NA,NA,yes,NA,yes,Spanish,5,10,NA,NA,NA,NA,NA,NA,NA,NA,NA,yes,NA,yes,NA
Exp1 - ws only,brazilian-portuguese,L_aligned,mbrola,lab,121,9,warm up ws,NA,NA,NA,NA,audio/pato.wav,audio/tibo.wav,NA,NA,NA,NA,NA,NA,NA,1,1,0.667085179,NA,NA,9,23,male,graduate,psychology,yes,NA,no,NA,NA,yes,NA,yes,Spanish,5,10,NA,NA,NA,NA,NA,NA,NA,NA,NA,yes,NA,yes,NA
Exp1 - ws only,brazilian-portuguese,L_aligned,mbrola,lab,121,9,warm up ws,NA,NA,NA,NA,audio/tela.wav,audio/bafi.wav,NA,NA,NA,NA,NA,NA,NA,1,0,1.097113745,NA,NA,9,23,male,graduate,psychology,yes,NA,no,NA,NA,yes,NA,yes,Spanish,5,10,NA,NA,NA,NA,NA,NA,NA,NA,NA,yes,NA,yes,NA
Exp1 - ws only,brazilian-portuguese,L_aligned,mbrola,lab,121,9,test ws,5,3,NA,NA,audio/p6.wav,audio/pp3.wav,part_word,NA,NA,NA,NA,NA,NA,2,1,0.937691794,0.5,NA,9,23,male,graduate,psychology,yes,NA,no,NA,NA,yes,NA,yes,Spanish,5,10,NA,NA,NA,NA,NA,NA,NA,NA,NA,yes,NA,yes,NA
Exp1 - ws only,brazilian-portuguese,L_aligned,mbrola,lab,121,9,test ws,6,3,NA,NA,audio/p4.wav,audio/pp1.wav,part_word,NA,NA,NA,NA,NA,NA,2,1,0.341523409,0.5,NA,9,23,male,graduate,psychology,yes,NA,no,NA,NA,yes,NA,yes,Spanish,5,10,NA,NA,NA,NA,NA,NA,NA,NA,NA,yes,NA,yes,NA
Exp1 - ws only,brazilian-portuguese,L_aligned,mbrola,lab,121,9,test ws,7,3,NA,NA,audio/p5.wav,audio/pp2.wav,part_word,NA,NA,NA,NA,NA,NA,2,1,0.155258491,0.5,NA,9,23,male,graduate,psychology,yes,NA,no,NA,NA,yes,NA,yes,Spanish,5,10,NA,NA,NA,NA,NA,NA,NA,NA,NA,yes,NA,yes,NA
Exp1 - ws only,brazilian-portuguese,L_aligned,mbrola,lab,121,9,test ws,8,4,NA,NA,audio/p5.wav,audio/pp1.wav,part_word,NA,NA,NA,NA,NA,NA,1,1,0.278200282,0.5,NA,9,23,male,graduate,psychology,yes,NA,no,NA,NA,yes,NA,yes,Spanish,5,10,NA,NA,NA,NA,NA,NA,NA,NA,NA,yes,NA,yes,NA
Exp1 - ws only,brazilian-portuguese,L_aligned,mbrola,lab,121,9,test ws,9,4,NA,NA,audio/p4.wav,audio/pp2.wav,part_word,NA,NA,NA,NA,NA,NA,2,1,0.370816442,0.5,NA,9,23,male,graduate,psychology,yes,NA,no,NA,NA,yes,NA,yes,Spanish,5,10,NA,NA,NA,NA,NA,NA,NA,NA,NA,yes,NA,yes,NA
Exp1 - ws only,brazilian-portuguese,L_aligned,mbrola,lab,121,9,test ws,10,4,NA,NA,audio/p6.wav,audio/pp3.wav,part_word,NA,NA,NA,NA,NA,NA,2,1,0.216753049,0.5,NA,9,23,male,graduate,psychology,yes,NA,no,NA,NA,yes,NA,yes,Spanish,5,10,NA,NA,NA,NA,NA,NA,NA,NA,NA,yes,NA,yes,NA
Exp1 - ws only,brazilian-portuguese,L_aligned,mbrola,lab,121,9,test ws,11,6,NA,NA,audio/p5.wav,audio/pp3.wav,part_word,NA,NA,NA,NA,NA,NA,2,1,0.156032227,0.5,NA,9,23,male,graduate,psychology,yes,NA,no,NA,NA,yes,NA,yes,Spanish,5,10,NA,NA,NA,NA,NA,NA,NA,NA,NA,yes,NA,yes,NA
Exp1 - ws only,brazilian-portuguese,L_aligned,mbrola,lab,121,9,test ws,12,6,NA,NA,audio/p6.wav,audio/pp2.wav,part_word,NA,NA,NA,NA,NA,NA,1,1,0.262407987,0.5,NA,9,23,male,graduate,psychology,yes,NA,no,NA,NA,yes,NA,yes,Spanish,5,10,NA,NA,NA,NA,NA,NA,NA,NA,NA,yes,NA,yes,NA
Exp1 - ws only,brazilian-portuguese,L_aligned,mbrola,lab,121,9,test ws,13,6,NA,NA,audio/p4.wav,audio/pp1.wav,part_word,NA,NA,NA,NA,NA,NA,2,1,0.508776791,0.5,NA,9,23,male,graduate,psychology,yes,NA,no,NA,NA,yes,NA,yes,Spanish,5,10,NA,NA,NA,NA,NA,NA,NA,NA,NA,yes,NA,yes,NA
Exp1 - ws only,brazilian-portuguese,L_aligned,mbrola,lab,121,9,test ws,14,5,NA,NA,audio/p4.wav,audio/pp3.wav,part_word,NA,NA,NA,NA,NA,NA,2,1,0.216578004,0.5,NA,9,23,male,graduate,psychology,yes,NA,no,NA,NA,yes,NA,yes,Spanish,5,10,NA,NA,NA,NA,NA,NA,NA,NA,NA,yes,NA,yes,NA
Exp1 - ws only,brazilian-portuguese,L_aligned,mbrola,lab,121,9,test ws,15,5,NA,NA,audio/p5.wav,audio/pp2.wav,part_word,NA,NA,NA,NA,NA,NA,1,1,0.339250098,0.5,NA,9,23,male,graduate,psychology,yes,NA,no,NA,NA,yes,NA,yes,Spanish,5,10,NA,NA,NA,NA,NA,NA,NA,NA,NA,yes,NA,yes,NA
Exp1 - ws only,brazilian-portuguese,L_aligned,mbrola,lab,121,9,test ws,16,5,NA,NA,audio/p6.wav,audio/pp1.wav,part_word,NA,NA,NA,NA,NA,NA,1,1,0.357604215,0.5,NA,9,23,male,graduate,psychology,yes,NA,no,NA,NA,yes,NA,yes,Spanish,5,10,NA,NA,NA,NA,NA,NA,NA,NA,NA,yes,NA,yes,NA
Exp1 - ws only,brazilian-portuguese,L_aligned,mbrola,lab,121,9,test ws,17,1,NA,NA,audio/p4.wav,audio/pp2.wav,part_word,NA,NA,NA,NA,NA,NA,2,1,0.233433685,0.5,NA,9,23,male,graduate,psychology,yes,NA,no,NA,NA,yes,NA,yes,Spanish,5,10,NA,NA,NA,NA,NA,NA,NA,NA,NA,yes,NA,yes,NA
Exp1 - ws only,brazilian-portuguese,L_aligned,mbrola,lab,121,9,test ws,18,1,NA,NA,audio/p6.wav,audio/pp1.wav,part_word,NA,NA,NA,NA,NA,NA,1,1,0.323228021,0.5,NA,9,23,male,graduate,psychology,yes,NA,no,NA,NA,yes,NA,yes,Spanish,5,10,NA,NA,NA,NA,NA,NA,NA,NA,NA,yes,NA,yes,NA
Exp1 - ws only,brazilian-portuguese,L_aligned,mbrola,lab,121,9,test ws,19,1,NA,NA,audio/p5.wav,audio/pp3.wav,part_word,NA,NA,NA,NA,NA,NA,1,1,0.448367858,0.5,NA,9,23,male,graduate,psychology,yes,NA,no,NA,NA,yes,NA,yes,Spanish,5,10,NA,NA,NA,NA,NA,NA,NA,NA,NA,yes,NA,yes,NA
Exp1 - ws only,brazilian-portuguese,L_aligned,mbrola,lab,121,9,test ws,20,2,NA,NA,audio/p5.wav,audio/pp2.wav,part_word,NA,NA,NA,NA,NA,NA,1,1,1.605671017,0.5,NA,9,23,male,graduate,psychology,yes,NA,no,NA,NA,yes,NA,yes,Spanish,5,10,NA,NA,NA,NA,NA,NA,NA,NA,NA,yes,NA,yes,NA
Exp1 - ws only,brazilian-portuguese,L_aligned,mbrola,lab,121,9,test ws,21,2,NA,NA,audio/p4.wav,audio/pp3.wav,part_word,NA,NA,NA,NA,NA,NA,2,1,0.200461846,0.5,NA,9,23,male,graduate,psychology,yes,NA,no,NA,NA,yes,NA,yes,Spanish,5,10,NA,NA,NA,NA,NA,NA,NA,NA,NA,yes,NA,yes,NA
Exp1 - ws only,brazilian-portuguese,L_aligned,mbrola,lab,121,9,test ws,22,2,NA,NA,audio/p6.wav,audio/pp1.wav,part_word,NA,NA,NA,NA,NA,NA,1,1,0.154651249,0.5,NA,9,23,male,graduate,psychology,yes,NA,no,NA,NA,yes,NA,yes,Spanish,5,10,NA,NA,NA,NA,NA,NA,NA,NA,NA,yes,NA,yes,NA
Exp1 - ws only,brazilian-portuguese,L_aligned,mbrola,lab,121,9,self evaluation ws,NA,NA,NA,NA,NA,NA,NA,NA,NA,NA,NA,NA,NA,4,NA,6.226070372,NA,NA,9,23,male,graduate,psychology,yes,NA,no,NA,NA,yes,NA,yes,Spanish,5,10,NA,NA,NA,NA,NA,NA,NA,NA,NA,yes,NA,yes,NA
Exp1 - ws only,brazilian-portuguese,L_aligned,mbrola,lab,121,9,puzzle concentration,NA,NA,NA,NA,NA,NA,NA,NA,NA,NA,NA,NA,NA,3,NA,8.408311524,NA,NA,9,23,male,graduate,psychology,yes,NA,no,NA,NA,yes,NA,yes,Spanish,5,10,NA,NA,NA,NA,NA,NA,NA,NA,NA,yes,NA,yes,NA
Exp1 - ws only,brazilian-portuguese,L_aligned,mbrola,lab,122,10,warm up ws,NA,NA,NA,NA,audio/tela.wav,audio/bafi.wav,NA,NA,NA,NA,NA,NA,NA,2,1,2.272055444,NA,NA,10,24,female,undergraduate,political science,yes,NA,no,NA,NA,yes,NA,yes,Spanish,6,6,English,3,16,NA,NA,NA,NA,NA,NA,yes,NA,yes,NA
Exp1 - ws only,brazilian-portuguese,L_aligned,mbrola,lab,122,10,warm up ws,NA,NA,NA,NA,audio/pato.wav,audio/tibo.wav,NA,NA,NA,NA,NA,NA,NA,1,1,1.963121853,NA,NA,10,24,female,undergraduate,political science,yes,NA,no,NA,NA,yes,NA,yes,Spanish,6,6,English,3,16,NA,NA,NA,NA,NA,NA,yes,NA,yes,NA
Exp1 - ws only,brazilian-portuguese,L_aligned,mbrola,lab,122,10,warm up ws,NA,NA,NA,NA,audio/bola.wav,audio/sibu.wav,NA,NA,NA,NA,NA,NA,NA,2,0,1.098935473,NA,NA,10,24,female,undergraduate,political science,yes,NA,no,NA,NA,yes,NA,yes,Spanish,6,6,English,3,16,NA,NA,NA,NA,NA,NA,yes,NA,yes,NA
Exp1 - ws only,brazilian-portuguese,L_aligned,mbrola,lab,122,10,warm up ws,NA,NA,NA,NA,audio/cabo.wav,audio/guvi.wav,NA,NA,NA,NA,NA,NA,NA,2,1,0.818262888,NA,NA,10,24,female,undergraduate,political science,yes,NA,no,NA,NA,yes,NA,yes,Spanish,6,6,English,3,16,NA,NA,NA,NA,NA,NA,yes,NA,yes,NA
Exp1 - ws only,brazilian-portuguese,L_aligned,mbrola,lab,122,10,test ws,5,2,NA,NA,audio/p4.wav,audio/pp3.wav,part_word,NA,NA,NA,NA,NA,NA,1,0,3.621523181,0.5,NA,10,24,female,undergraduate,political science,yes,NA,no,NA,NA,yes,NA,yes,Spanish,6,6,English,3,16,NA,NA,NA,NA,NA,NA,yes,NA,yes,NA
Exp1 - ws only,brazilian-portuguese,L_aligned,mbrola,lab,122,10,test ws,6,2,NA,NA,audio/p6.wav,audio/pp1.wav,part_word,NA,NA,NA,NA,NA,NA,1,1,0.570852933,0.5,NA,10,24,female,undergraduate,political science,yes,NA,no,NA,NA,yes,NA,yes,Spanish,6,6,English,3,16,NA,NA,NA,NA,NA,NA,yes,NA,yes,NA
Exp1 - ws only,brazilian-portuguese,L_aligned,mbrola,lab,122,10,test ws,7,2,NA,NA,audio/p5.wav,audio/pp2.wav,part_word,NA,NA,NA,NA,NA,NA,2,0,0.432865785,0.5,NA,10,24,female,undergraduate,political science,yes,NA,no,NA,NA,yes,NA,yes,Spanish,6,6,English,3,16,NA,NA,NA,NA,NA,NA,yes,NA,yes,NA
Exp1 - ws only,brazilian-portuguese,L_aligned,mbrola,lab,122,10,test ws,8,5,NA,NA,audio/p6.wav,audio/pp1.wav,part_word,NA,NA,NA,NA,NA,NA,1,1,0.601840543,0.5,NA,10,24,female,undergraduate,political science,yes,NA,no,NA,NA,yes,NA,yes,Spanish,6,6,English,3,16,NA,NA,NA,NA,NA,NA,yes,NA,yes,NA
Exp1 - ws only,brazilian-portuguese,L_aligned,mbrola,lab,122,10,test ws,9,5,NA,NA,audio/p4.wav,audio/pp3.wav,part_word,NA,NA,NA,NA,NA,NA,2,1,0.417352309,0.5,NA,10,24,female,undergraduate,political science,yes,NA,no,NA,NA,yes,NA,yes,Spanish,6,6,English,3,16,NA,NA,NA,NA,NA,NA,yes,NA,yes,NA
Exp1 - ws only,brazilian-portuguese,L_aligned,mbrola,lab,122,10,test ws,10,5,NA,NA,audio/p5.wav,audio/pp2.wav,part_word,NA,NA,NA,NA,NA,NA,2,0,0.57462867,0.5,NA,10,24,female,undergraduate,political science,yes,NA,no,NA,NA,yes,NA,yes,Spanish,6,6,English,3,16,NA,NA,NA,NA,NA,NA,yes,NA,yes,NA
Exp1 - ws only,brazilian-portuguese,L_aligned,mbrola,lab,122,10,test ws,11,6,NA,NA,audio/p4.wav,audio/pp1.wav,part_word,NA,NA,NA,NA,NA,NA,1,0,0.57276817,0.5,NA,10,24,female,undergraduate,political science,yes,NA,no,NA,NA,yes,NA,yes,Spanish,6,6,English,3,16,NA,NA,NA,NA,NA,NA,yes,NA,yes,NA
Exp1 - ws only,brazilian-portuguese,L_aligned,mbrola,lab,122,10,test ws,12,6,NA,NA,audio/p5.wav,audio/pp3.wav,part_word,NA,NA,NA,NA,NA,NA,1,0,0.603647446,0.5,NA,10,24,female,undergraduate,political science,yes,NA,no,NA,NA,yes,NA,yes,Spanish,6,6,English,3,16,NA,NA,NA,NA,NA,NA,yes,NA,yes,NA
Exp1 - ws only,brazilian-portuguese,L_aligned,mbrola,lab,122,10,test ws,13,6,NA,NA,audio/p6.wav,audio/pp2.wav,part_word,NA,NA,NA,NA,NA,NA,2,0,2.132803065,0.5,NA,10,24,female,undergraduate,political science,yes,NA,no,NA,NA,yes,NA,yes,Spanish,6,6,English,3,16,NA,NA,NA,NA,NA,NA,yes,NA,yes,NA
Exp1 - ws only,brazilian-portuguese,L_aligned,mbrola,lab,122,10,test ws,14,4,NA,NA,audio/p4.wav,audio/pp2.wav,part_word,NA,NA,NA,NA,NA,NA,1,0,1.264167565,0.5,NA,10,24,female,undergraduate,political science,yes,NA,no,NA,NA,yes,NA,yes,Spanish,6,6,English,3,16,NA,NA,NA,NA,NA,NA,yes,NA,yes,NA
Exp1 - ws only,brazilian-portuguese,L_aligned,mbrola,lab,122,10,test ws,15,4,NA,NA,audio/p6.wav,audio/pp3.wav,part_word,NA,NA,NA,NA,NA,NA,2,1,2.717611741,0.5,NA,10,24,female,undergraduate,political science,yes,NA,no,NA,NA,yes,NA,yes,Spanish,6,6,English,3,16,NA,NA,NA,NA,NA,NA,yes,NA,yes,NA
Exp1 - ws only,brazilian-portuguese,L_aligned,mbrola,lab,122,10,test ws,16,4,NA,NA,audio/p5.wav,audio/pp1.wav,part_word,NA,NA,NA,NA,NA,NA,2,0,0.91164537,0.5,NA,10,24,female,undergraduate,political science,yes,NA,no,NA,NA,yes,NA,yes,Spanish,6,6,English,3,16,NA,NA,NA,NA,NA,NA,yes,NA,yes,NA
Exp1 - ws only,brazilian-portuguese,L_aligned,mbrola,lab,122,10,test ws,17,3,NA,NA,audio/p4.wav,audio/pp1.wav,part_word,NA,NA,NA,NA,NA,NA,2,1,3.424012019,0.5,NA,10,24,female,undergraduate,political science,yes,NA,no,NA,NA,yes,NA,yes,Spanish,6,6,English,3,16,NA,NA,NA,NA,NA,NA,yes,NA,yes,NA
Exp1 - ws only,brazilian-portuguese,L_aligned,mbrola,lab,122,10,test ws,18,3,NA,NA,audio/p5.wav,audio/pp2.wav,part_word,NA,NA,NA,NA,NA,NA,1,0,0.232000821,0.5,NA,10,24,female,undergraduate,political science,yes,NA,no,NA,NA,yes,NA,yes,Spanish,6,6,English,3,16,NA,NA,NA,NA,NA,NA,yes,NA,yes,NA
Exp1 - ws only,brazilian-portuguese,L_aligned,mbrola,lab,122,10,test ws,19,3,NA,NA,audio/p6.wav,audio/pp3.wav,part_word,NA,NA,NA,NA,NA,NA,2,1,0.95881984,0.5,NA,10,24,female,undergraduate,political science,yes,NA,no,NA,NA,yes,NA,yes,Spanish,6,6,English,3,16,NA,NA,NA,NA,NA,NA,yes,NA,yes,NA
Exp1 - ws only,brazilian-portuguese,L_aligned,mbrola,lab,122,10,test ws,20,1,NA,NA,audio/p4.wav,audio/pp2.wav,part_word,NA,NA,NA,NA,NA,NA,1,0,0.401717384,0.5,NA,10,24,female,undergraduate,political science,yes,NA,no,NA,NA,yes,NA,yes,Spanish,6,6,English,3,16,NA,NA,NA,NA,NA,NA,yes,NA,yes,NA
Exp1 - ws only,brazilian-portuguese,L_aligned,mbrola,lab,122,10,test ws,21,1,NA,NA,audio/p6.wav,audio/pp1.wav,part_word,NA,NA,NA,NA,NA,NA,1,1,0.248521807,0.5,NA,10,24,female,undergraduate,political science,yes,NA,no,NA,NA,yes,NA,yes,Spanish,6,6,English,3,16,NA,NA,NA,NA,NA,NA,yes,NA,yes,NA
Exp1 - ws only,brazilian-portuguese,L_aligned,mbrola,lab,122,10,test ws,22,1,NA,NA,audio/p5.wav,audio/pp3.wav,part_word,NA,NA,NA,NA,NA,NA,1,1,2.348258383,0.5,NA,10,24,female,undergraduate,political science,yes,NA,no,NA,NA,yes,NA,yes,Spanish,6,6,English,3,16,NA,NA,NA,NA,NA,NA,yes,NA,yes,NA
Exp1 - ws only,brazilian-portuguese,L_aligned,mbrola,lab,122,10,self evaluation ws,NA,NA,NA,NA,NA,NA,NA,NA,NA,NA,NA,NA,NA,2,NA,4.389894688,NA,NA,10,24,female,undergraduate,political science,yes,NA,no,NA,NA,yes,NA,yes,Spanish,6,6,English,3,16,NA,NA,NA,NA,NA,NA,yes,NA,yes,NA
Exp1 - ws only,brazilian-portuguese,L_aligned,mbrola,lab,122,10,puzzle concentration,NA,NA,NA,NA,NA,NA,NA,NA,NA,NA,NA,NA,NA,4,NA,2.337228808,NA,NA,10,24,female,undergraduate,political science,yes,NA,no,NA,NA,yes,NA,yes,Spanish,6,6,English,3,16,NA,NA,NA,NA,NA,NA,yes,NA,yes,NA
Exp1 - ws only,brazilian-portuguese,L_aligned,mbrola,lab,123,11,warm up ws,NA,NA,NA,NA,audio/tela.wav,audio/bafi.wav,NA,NA,NA,NA,NA,NA,NA,1,0,8.501461943,NA,NA,11,19,male,undergraduate,chemistry,yes,NA,no,NA,NA,yes,NA,no,NA,NA,NA,NA,NA,NA,NA,NA,NA,NA,NA,NA,yes,NA,yes,NA
Exp1 - ws only,brazilian-portuguese,L_aligned,mbrola,lab,123,11,warm up ws,NA,NA,NA,NA,audio/pato.wav,audio/tibo.wav,NA,NA,NA,NA,NA,NA,NA,1,1,1.625337119,NA,NA,11,19,male,undergraduate,chemistry,yes,NA,no,NA,NA,yes,NA,no,NA,NA,NA,NA,NA,NA,NA,NA,NA,NA,NA,NA,yes,NA,yes,NA
Exp1 - ws only,brazilian-portuguese,L_aligned,mbrola,lab,123,11,warm up ws,NA,NA,NA,NA,audio/cabo.wav,audio/guvi.wav,NA,NA,NA,NA,NA,NA,NA,2,1,1.437484249,NA,NA,11,19,male,undergraduate,chemistry,yes,NA,no,NA,NA,yes,NA,no,NA,NA,NA,NA,NA,NA,NA,NA,NA,NA,NA,NA,yes,NA,yes,NA
Exp1 - ws only,brazilian-portuguese,L_aligned,mbrola,lab,123,11,warm up ws,NA,NA,NA,NA,audio/bola.wav,audio/sibu.wav,NA,NA,NA,NA,NA,NA,NA,1,1,2.577316502,NA,NA,11,19,male,undergraduate,chemistry,yes,NA,no,NA,NA,yes,NA,no,NA,NA,NA,NA,NA,NA,NA,NA,NA,NA,NA,NA,yes,NA,yes,NA
Exp1 - ws only,brazilian-portuguese,L_aligned,mbrola,lab,123,11,test ws,5,1,NA,NA,audio/p5.wav,audio/pp3.wav,part_word,NA,NA,NA,NA,NA,NA,2,0,0.633154297,0.5,NA,11,19,male,undergraduate,chemistry,yes,NA,no,NA,NA,yes,NA,no,NA,NA,NA,NA,NA,NA,NA,NA,NA,NA,NA,NA,yes,NA,yes,NA
Exp1 - ws only,brazilian-portuguese,L_aligned,mbrola,lab,123,11,test ws,6,1,NA,NA,audio/p6.wav,audio/pp1.wav,part_word,NA,NA,NA,NA,NA,NA,2,0,0.538232896,0.5,NA,11,19,male,undergraduate,chemistry,yes,NA,no,NA,NA,yes,NA,no,NA,NA,NA,NA,NA,NA,NA,NA,NA,NA,NA,NA,yes,NA,yes,NA
Exp1 - ws only,brazilian-portuguese,L_aligned,mbrola,lab,123,11,test ws,7,1,NA,NA,audio/p4.wav,audio/pp2.wav,part_word,NA,NA,NA,NA,NA,NA,1,0,7.123989782,0.5,NA,11,19,male,undergraduate,chemistry,yes,NA,no,NA,NA,yes,NA,no,NA,NA,NA,NA,NA,NA,NA,NA,NA,NA,NA,NA,yes,NA,yes,NA
Exp1 - ws only,brazilian-portuguese,L_aligned,mbrola,lab,123,11,test ws,8,2,NA,NA,audio/p5.wav,audio/pp2.wav,part_word,NA,NA,NA,NA,NA,NA,1,1,0.803987844,0.5,NA,11,19,male,undergraduate,chemistry,yes,NA,no,NA,NA,yes,NA,no,NA,NA,NA,NA,NA,NA,NA,NA,NA,NA,NA,NA,yes,NA,yes,NA
Exp1 - ws only,brazilian-portuguese,L_aligned,mbrola,lab,123,11,test ws,9,2,NA,NA,audio/p4.wav,audio/pp3.wav,part_word,NA,NA,NA,NA,NA,NA,1,0,0.370403061,0.5,NA,11,19,male,undergraduate,chemistry,yes,NA,no,NA,NA,yes,NA,no,NA,NA,NA,NA,NA,NA,NA,NA,NA,NA,NA,NA,yes,NA,yes,NA
Exp1 - ws only,brazilian-portuguese,L_aligned,mbrola,lab,123,11,test ws,10,2,NA,NA,audio/p6.wav,audio/pp1.wav,part_word,NA,NA,NA,NA,NA,NA,1,1,2.504799781,0.5,NA,11,19,male,undergraduate,chemistry,yes,NA,no,NA,NA,yes,NA,no,NA,NA,NA,NA,NA,NA,NA,NA,NA,NA,NA,NA,yes,NA,yes,NA
Exp1 - ws only,brazilian-portuguese,L_aligned,mbrola,lab,123,11,test ws,11,3,NA,NA,audio/p6.wav,audio/pp3.wav,part_word,NA,NA,NA,NA,NA,NA,1,0,2.052621976,0.5,NA,11,19,male,undergraduate,chemistry,yes,NA,no,NA,NA,yes,NA,no,NA,NA,NA,NA,NA,NA,NA,NA,NA,NA,NA,NA,yes,NA,yes,NA
Exp1 - ws only,brazilian-portuguese,L_aligned,mbrola,lab,123,11,test ws,12,3,NA,NA,audio/p5.wav,audio/pp2.wav,part_word,NA,NA,NA,NA,NA,NA,1,0,0.309820222,0.5,NA,11,19,male,undergraduate,chemistry,yes,NA,no,NA,NA,yes,NA,no,NA,NA,NA,NA,NA,NA,NA,NA,NA,NA,NA,NA,yes,NA,yes,NA
Exp1 - ws only,brazilian-portuguese,L_aligned,mbrola,lab,123,11,test ws,13,3,NA,NA,audio/p4.wav,audio/pp1.wav,part_word,NA,NA,NA,NA,NA,NA,2,1,0.662882948,0.5,NA,11,19,male,undergraduate,chemistry,yes,NA,no,NA,NA,yes,NA,no,NA,NA,NA,NA,NA,NA,NA,NA,NA,NA,NA,NA,yes,NA,yes,NA
Exp1 - ws only,brazilian-portuguese,L_aligned,mbrola,lab,123,11,test ws,14,4,NA,NA,audio/p4.wav,audio/pp2.wav,part_word,NA,NA,NA,NA,NA,NA,2,1,4.5458813,0.5,NA,11,19,male,undergraduate,chemistry,yes,NA,no,NA,NA,yes,NA,no,NA,NA,NA,NA,NA,NA,NA,NA,NA,NA,NA,NA,yes,NA,yes,NA
Exp1 - ws only,brazilian-portuguese,L_aligned,mbrola,lab,123,11,test ws,15,4,NA,NA,audio/p5.wav,audio/pp1.wav,part_word,NA,NA,NA,NA,NA,NA,1,1,3.323811886,0.5,NA,11,19,male,undergraduate,chemistry,yes,NA,no,NA,NA,yes,NA,no,NA,NA,NA,NA,NA,NA,NA,NA,NA,NA,NA,NA,yes,NA,yes,NA
Exp1 - ws only,brazilian-portuguese,L_aligned,mbrola,lab,123,11,test ws,16,4,NA,NA,audio/p6.wav,audio/pp3.wav,part_word,NA,NA,NA,NA,NA,NA,2,1,0.464578095,0.5,NA,11,19,male,undergraduate,chemistry,yes,NA,no,NA,NA,yes,NA,no,NA,NA,NA,NA,NA,NA,NA,NA,NA,NA,NA,NA,yes,NA,yes,NA
Exp1 - ws only,brazilian-portuguese,L_aligned,mbrola,lab,123,11,test ws,17,5,NA,NA,audio/p5.wav,audio/pp2.wav,part_word,NA,NA,NA,NA,NA,NA,2,0,3.618610698,0.5,NA,11,19,male,undergraduate,chemistry,yes,NA,no,NA,NA,yes,NA,no,NA,NA,NA,NA,NA,NA,NA,NA,NA,NA,NA,NA,yes,NA,yes,NA
Exp1 - ws only,brazilian-portuguese,L_aligned,mbrola,lab,123,11,test ws,18,5,NA,NA,audio/p4.wav,audio/pp3.wav,part_word,NA,NA,NA,NA,NA,NA,1,0,0.802549278,0.5,NA,11,19,male,undergraduate,chemistry,yes,NA,no,NA,NA,yes,NA,no,NA,NA,NA,NA,NA,NA,NA,NA,NA,NA,NA,NA,yes,NA,yes,NA
Exp1 - ws only,brazilian-portuguese,L_aligned,mbrola,lab,123,11,test ws,19,5,NA,NA,audio/p6.wav,audio/pp1.wav,part_word,NA,NA,NA,NA,NA,NA,2,0,5.267629702,0.5,NA,11,19,male,undergraduate,chemistry,yes,NA,no,NA,NA,yes,NA,no,NA,NA,NA,NA,NA,NA,NA,NA,NA,NA,NA,NA,yes,NA,yes,NA
Exp1 - ws only,brazilian-portuguese,L_aligned,mbrola,lab,123,11,test ws,20,6,NA,NA,audio/p5.wav,audio/pp3.wav,part_word,NA,NA,NA,NA,NA,NA,1,0,4.824775491,0.5,NA,11,19,male,undergraduate,chemistry,yes,NA,no,NA,NA,yes,NA,no,NA,NA,NA,NA,NA,NA,NA,NA,NA,NA,NA,NA,yes,NA,yes,NA
Exp1 - ws only,brazilian-portuguese,L_aligned,mbrola,lab,123,11,test ws,21,6,NA,NA,audio/p4.wav,audio/pp1.wav,part_word,NA,NA,NA,NA,NA,NA,1,0,0.371106094,0.5,NA,11,19,male,undergraduate,chemistry,yes,NA,no,NA,NA,yes,NA,no,NA,NA,NA,NA,NA,NA,NA,NA,NA,NA,NA,NA,yes,NA,yes,NA
Exp1 - ws only,brazilian-portuguese,L_aligned,mbrola,lab,123,11,test ws,22,6,NA,NA,audio/p6.wav,audio/pp2.wav,part_word,NA,NA,NA,NA,NA,NA,1,1,0.294438457,0.5,NA,11,19,male,undergraduate,chemistry,yes,NA,no,NA,NA,yes,NA,no,NA,NA,NA,NA,NA,NA,NA,NA,NA,NA,NA,NA,yes,NA,yes,NA
Exp1 - ws only,brazilian-portuguese,L_aligned,mbrola,lab,123,11,self evaluation ws,NA,NA,NA,NA,NA,NA,NA,NA,NA,NA,NA,NA,NA,2,NA,3.803234635,NA,NA,11,19,male,undergraduate,chemistry,yes,NA,no,NA,NA,yes,NA,no,NA,NA,NA,NA,NA,NA,NA,NA,NA,NA,NA,NA,yes,NA,yes,NA
Exp1 - ws only,brazilian-portuguese,L_aligned,mbrola,lab,123,11,puzzle concentration,NA,NA,NA,NA,NA,NA,NA,NA,NA,NA,NA,NA,NA,4,NA,4.941931088,NA,NA,11,19,male,undergraduate,chemistry,yes,NA,no,NA,NA,yes,NA,no,NA,NA,NA,NA,NA,NA,NA,NA,NA,NA,NA,NA,yes,NA,yes,NA
Exp1 - ws only,brazilian-portuguese,L_aligned,mbrola,lab,124,12,warm up ws,NA,NA,NA,NA,audio/bola.wav,audio/sibu.wav,NA,NA,NA,NA,NA,NA,NA,2,0,6.857282063,NA,NA,12,25,female,graduate,engineering material,yes,NA,no,NA,NA,yes,NA,yes,Spanish,3,9,NA,NA,NA,NA,NA,NA,NA,NA,NA,yes,NA,yes,NA
Exp1 - ws only,brazilian-portuguese,L_aligned,mbrola,lab,124,12,warm up ws,NA,NA,NA,NA,audio/tela.wav,audio/bafi.wav,NA,NA,NA,NA,NA,NA,NA,2,1,3.029653957,NA,NA,12,25,female,graduate,engineering material,yes,NA,no,NA,NA,yes,NA,yes,Spanish,3,9,NA,NA,NA,NA,NA,NA,NA,NA,NA,yes,NA,yes,NA
Exp1 - ws only,brazilian-portuguese,L_aligned,mbrola,lab,124,12,warm up ws,NA,NA,NA,NA,audio/cabo.wav,audio/guvi.wav,NA,NA,NA,NA,NA,NA,NA,2,1,0.852155568,NA,NA,12,25,female,graduate,engineering material,yes,NA,no,NA,NA,yes,NA,yes,Spanish,3,9,NA,NA,NA,NA,NA,NA,NA,NA,NA,yes,NA,yes,NA
Exp1 - ws only,brazilian-portuguese,L_aligned,mbrola,lab,124,12,warm up ws,NA,NA,NA,NA,audio/pato.wav,audio/tibo.wav,NA,NA,NA,NA,NA,NA,NA,1,1,3.441293626,NA,NA,12,25,female,graduate,engineering material,yes,NA,no,NA,NA,yes,NA,yes,Spanish,3,9,NA,NA,NA,NA,NA,NA,NA,NA,NA,yes,NA,yes,NA
Exp1 - ws only,brazilian-portuguese,L_aligned,mbrola,lab,124,12,test ws,5,4,NA,NA,audio/p4.wav,audio/pp2.wav,part_word,NA,NA,NA,NA,NA,NA,1,0,3.058873437,0.5,NA,12,25,female,graduate,engineering material,yes,NA,no,NA,NA,yes,NA,yes,Spanish,3,9,NA,NA,NA,NA,NA,NA,NA,NA,NA,yes,NA,yes,NA
Exp1 - ws only,brazilian-portuguese,L_aligned,mbrola,lab,124,12,test ws,6,4,NA,NA,audio/p6.wav,audio/pp3.wav,part_word,NA,NA,NA,NA,NA,NA,1,0,2.725439752,0.5,NA,12,25,female,graduate,engineering material,yes,NA,no,NA,NA,yes,NA,yes,Spanish,3,9,NA,NA,NA,NA,NA,NA,NA,NA,NA,yes,NA,yes,NA
Exp1 - ws only,brazilian-portuguese,L_aligned,mbrola,lab,124,12,test ws,7,4,NA,NA,audio/p5.wav,audio/pp1.wav,part_word,NA,NA,NA,NA,NA,NA,1,1,6.725003564,0.5,NA,12,25,female,graduate,engineering material,yes,NA,no,NA,NA,yes,NA,yes,Spanish,3,9,NA,NA,NA,NA,NA,NA,NA,NA,NA,yes,NA,yes,NA
Exp1 - ws only,brazilian-portuguese,L_aligned,mbrola,lab,124,12,test ws,8,3,NA,NA,audio/p5.wav,audio/pp2.wav,part_word,NA,NA,NA,NA,NA,NA,2,1,2.623312408,0.5,NA,12,25,female,graduate,engineering material,yes,NA,no,NA,NA,yes,NA,yes,Spanish,3,9,NA,NA,NA,NA,NA,NA,NA,NA,NA,yes,NA,yes,NA
Exp1 - ws only,brazilian-portuguese,L_aligned,mbrola,lab,124,12,test ws,9,3,NA,NA,audio/p4.wav,audio/pp1.wav,part_word,NA,NA,NA,NA,NA,NA,1,0,1.636949419,0.5,NA,12,25,female,graduate,engineering material,yes,NA,no,NA,NA,yes,NA,yes,Spanish,3,9,NA,NA,NA,NA,NA,NA,NA,NA,NA,yes,NA,yes,NA
Exp1 - ws only,brazilian-portuguese,L_aligned,mbrola,lab,124,12,test ws,10,3,NA,NA,audio/p6.wav,audio/pp3.wav,part_word,NA,NA,NA,NA,NA,NA,2,1,1.220260801,0.5,NA,12,25,female,graduate,engineering material,yes,NA,no,NA,NA,yes,NA,yes,Spanish,3,9,NA,NA,NA,NA,NA,NA,NA,NA,NA,yes,NA,yes,NA
Exp1 - ws only,brazilian-portuguese,L_aligned,mbrola,lab,124,12,test ws,11,2,NA,NA,audio/p4.wav,audio/pp3.wav,part_word,NA,NA,NA,NA,NA,NA,2,1,7.403489506,0.5,NA,12,25,female,graduate,engineering material,yes,NA,no,NA,NA,yes,NA,yes,Spanish,3,9,NA,NA,NA,NA,NA,NA,NA,NA,NA,yes,NA,yes,NA
Exp1 - ws only,brazilian-portuguese,L_aligned,mbrola,lab,124,12,test ws,12,2,NA,NA,audio/p5.wav,audio/pp2.wav,part_word,NA,NA,NA,NA,NA,NA,2,0,2.042377539,0.5,NA,12,25,female,graduate,engineering material,yes,NA,no,NA,NA,yes,NA,yes,Spanish,3,9,NA,NA,NA,NA,NA,NA,NA,NA,NA,yes,NA,yes,NA
Exp1 - ws only,brazilian-portuguese,L_aligned,mbrola,lab,124,12,test ws,13,2,NA,NA,audio/p6.wav,audio/pp1.wav,part_word,NA,NA,NA,NA,NA,NA,1,1,3.06030345,0.5,NA,12,25,female,graduate,engineering material,yes,NA,no,NA,NA,yes,NA,yes,Spanish,3,9,NA,NA,NA,NA,NA,NA,NA,NA,NA,yes,NA,yes,NA
Exp1 - ws only,brazilian-portuguese,L_aligned,mbrola,lab,124,12,test ws,14,1,NA,NA,audio/p4.wav,audio/pp2.wav,part_word,NA,NA,NA,NA,NA,NA,1,0,0.40337718,0.5,NA,12,25,female,graduate,engineering material,yes,NA,no,NA,NA,yes,NA,yes,Spanish,3,9,NA,NA,NA,NA,NA,NA,NA,NA,NA,yes,NA,yes,NA
Exp1 - ws only,brazilian-portuguese,L_aligned,mbrola,lab,124,12,test ws,15,1,NA,NA,audio/p6.wav,audio/pp1.wav,part_word,NA,NA,NA,NA,NA,NA,1,1,0.484772754,0.5,NA,12,25,female,graduate,engineering material,yes,NA,no,NA,NA,yes,NA,yes,Spanish,3,9,NA,NA,NA,NA,NA,NA,NA,NA,NA,yes,NA,yes,NA
Exp1 - ws only,brazilian-portuguese,L_aligned,mbrola,lab,124,12,test ws,16,1,NA,NA,audio/p5.wav,audio/pp3.wav,part_word,NA,NA,NA,NA,NA,NA,1,1,3.127289988,0.5,NA,12,25,female,graduate,engineering material,yes,NA,no,NA,NA,yes,NA,yes,Spanish,3,9,NA,NA,NA,NA,NA,NA,NA,NA,NA,yes,NA,yes,NA
Exp1 - ws only,brazilian-portuguese,L_aligned,mbrola,lab,124,12,test ws,17,6,NA,NA,audio/p5.wav,audio/pp3.wav,part_word,NA,NA,NA,NA,NA,NA,1,0,2.957060262,0.5,NA,12,25,female,graduate,engineering material,yes,NA,no,NA,NA,yes,NA,yes,Spanish,3,9,NA,NA,NA,NA,NA,NA,NA,NA,NA,yes,NA,yes,NA
Exp1 - ws only,brazilian-portuguese,L_aligned,mbrola,lab,124,12,test ws,18,6,NA,NA,audio/p6.wav,audio/pp2.wav,part_word,NA,NA,NA,NA,NA,NA,2,0,3.34954186,0.5,NA,12,25,female,graduate,engineering material,yes,NA,no,NA,NA,yes,NA,yes,Spanish,3,9,NA,NA,NA,NA,NA,NA,NA,NA,NA,yes,NA,yes,NA
Exp1 - ws only,brazilian-portuguese,L_aligned,mbrola,lab,124,12,test ws,19,6,NA,NA,audio/p4.wav,audio/pp1.wav,part_word,NA,NA,NA,NA,NA,NA,1,0,2.08721997,0.5,NA,12,25,female,graduate,engineering material,yes,NA,no,NA,NA,yes,NA,yes,Spanish,3,9,NA,NA,NA,NA,NA,NA,NA,NA,NA,yes,NA,yes,NA
Exp1 - ws only,brazilian-portuguese,L_aligned,mbrola,lab,124,12,test ws,20,5,NA,NA,audio/p6.wav,audio/pp1.wav,part_word,NA,NA,NA,NA,NA,NA,1,1,2.022549506,0.5,NA,12,25,female,graduate,engineering material,yes,NA,no,NA,NA,yes,NA,yes,Spanish,3,9,NA,NA,NA,NA,NA,NA,NA,NA,NA,yes,NA,yes,NA
Exp1 - ws only,brazilian-portuguese,L_aligned,mbrola,lab,124,12,test ws,21,5,NA,NA,audio/p4.wav,audio/pp3.wav,part_word,NA,NA,NA,NA,NA,NA,1,0,0.485207802,0.5,NA,12,25,female,graduate,engineering material,yes,NA,no,NA,NA,yes,NA,yes,Spanish,3,9,NA,NA,NA,NA,NA,NA,NA,NA,NA,yes,NA,yes,NA
Exp1 - ws only,brazilian-portuguese,L_aligned,mbrola,lab,124,12,test ws,22,5,NA,NA,audio/p5.wav,audio/pp2.wav,part_word,NA,NA,NA,NA,NA,NA,2,0,0.920043562,0.5,NA,12,25,female,graduate,engineering material,yes,NA,no,NA,NA,yes,NA,yes,Spanish,3,9,NA,NA,NA,NA,NA,NA,NA,NA,NA,yes,NA,yes,NA
Exp1 - ws only,brazilian-portuguese,L_aligned,mbrola,lab,124,12,self evaluation ws,NA,NA,NA,NA,NA,NA,NA,NA,NA,NA,NA,NA,NA,1,NA,5.380721621,NA,NA,12,25,female,graduate,engineering material,yes,NA,no,NA,NA,yes,NA,yes,Spanish,3,9,NA,NA,NA,NA,NA,NA,NA,NA,NA,yes,NA,yes,NA
Exp1 - ws only,brazilian-portuguese,L_aligned,mbrola,lab,124,12,puzzle concentration,NA,NA,NA,NA,NA,NA,NA,NA,NA,NA,NA,NA,NA,2,NA,4.646574069,NA,NA,12,25,female,graduate,engineering material,yes,NA,no,NA,NA,yes,NA,yes,Spanish,3,9,NA,NA,NA,NA,NA,NA,NA,NA,NA,yes,NA,yes,NA
Exp1 - ws only,brazilian-portuguese,L_aligned,mbrola,lab,125,25,warm up ws,NA,NA,NA,NA,audio/bola.wav,audio/fabu.wav,NA,NA,NA,NA,NA,NA,NA,1,1,21.28740357,NA,NA,13,26,female,undergraduate,administration,yes,NA,no,NA,NA,yes,NA,yes,Spanish,3,5,NA,NA,NA,NA,NA,NA,NA,NA,NA,yes,NA,yes,NA
Exp1 - ws only,brazilian-portuguese,L_aligned,mbrola,lab,125,25,warm up ws,NA,NA,NA,NA,audio/cabo.wav,audio/guvi.wav,NA,NA,NA,NA,NA,NA,NA,2,1,3.592473045,NA,NA,13,26,female,undergraduate,administration,yes,NA,no,NA,NA,yes,NA,yes,Spanish,3,5,NA,NA,NA,NA,NA,NA,NA,NA,NA,yes,NA,yes,NA
Exp1 - ws only,brazilian-portuguese,L_aligned,mbrola,lab,125,25,warm up ws,NA,NA,NA,NA,audio/pato.wav,audio/tibo.wav,NA,NA,NA,NA,NA,NA,NA,1,1,2.773224885,NA,NA,13,26,female,undergraduate,administration,yes,NA,no,NA,NA,yes,NA,yes,Spanish,3,5,NA,NA,NA,NA,NA,NA,NA,NA,NA,yes,NA,yes,NA
Exp1 - ws only,brazilian-portuguese,L_aligned,mbrola,lab,125,25,warm up ws,NA,NA,NA,NA,audio/tela.wav,audio/bafi.wav,NA,NA,NA,NA,NA,NA,NA,2,1,2.157471363,NA,NA,13,26,female,undergraduate,administration,yes,NA,no,NA,NA,yes,NA,yes,Spanish,3,5,NA,NA,NA,NA,NA,NA,NA,NA,NA,yes,NA,yes,NA
Exp1 - ws only,brazilian-portuguese,L_aligned,mbrola,lab,125,25,test ws,5,4,NA,NA,audio/p4.wav,audio/pp2.wav,part_word,NA,NA,NA,NA,NA,NA,2,1,1.820586374,0.5,NA,13,26,female,undergraduate,administration,yes,NA,no,NA,NA,yes,NA,yes,Spanish,3,5,NA,NA,NA,NA,NA,NA,NA,NA,NA,yes,NA,yes,NA
Exp1 - ws only,brazilian-portuguese,L_aligned,mbrola,lab,125,25,test ws,6,4,NA,NA,audio/p5.wav,audio/pp1.wav,part_word,NA,NA,NA,NA,NA,NA,1,1,1.23657367,0.5,NA,13,26,female,undergraduate,administration,yes,NA,no,NA,NA,yes,NA,yes,Spanish,3,5,NA,NA,NA,NA,NA,NA,NA,NA,NA,yes,NA,yes,NA
Exp1 - ws only,brazilian-portuguese,L_aligned,mbrola,lab,125,25,test ws,7,4,NA,NA,audio/p6.wav,audio/pp3.wav,part_word,NA,NA,NA,NA,NA,NA,2,1,1.688898582,0.5,NA,13,26,female,undergraduate,administration,yes,NA,no,NA,NA,yes,NA,yes,Spanish,3,5,NA,NA,NA,NA,NA,NA,NA,NA,NA,yes,NA,yes,NA
Exp1 - ws only,brazilian-portuguese,L_aligned,mbrola,lab,125,25,test ws,8,2,NA,NA,audio/p4.wav,audio/pp3.wav,part_word,NA,NA,NA,NA,NA,NA,2,1,2.056308194,0.5,NA,13,26,female,undergraduate,administration,yes,NA,no,NA,NA,yes,NA,yes,Spanish,3,5,NA,NA,NA,NA,NA,NA,NA,NA,NA,yes,NA,yes,NA
Exp1 - ws only,brazilian-portuguese,L_aligned,mbrola,lab,125,25,test ws,9,2,NA,NA,audio/p6.wav,audio/pp1.wav,part_word,NA,NA,NA,NA,NA,NA,1,1,2.007468797,0.5,NA,13,26,female,undergraduate,administration,yes,NA,no,NA,NA,yes,NA,yes,Spanish,3,5,NA,NA,NA,NA,NA,NA,NA,NA,NA,yes,NA,yes,NA
Exp1 - ws only,brazilian-portuguese,L_aligned,mbrola,lab,125,25,test ws,10,2,NA,NA,audio/p5.wav,audio/pp2.wav,part_word,NA,NA,NA,NA,NA,NA,1,1,2.123696709,0.5,NA,13,26,female,undergraduate,administration,yes,NA,no,NA,NA,yes,NA,yes,Spanish,3,5,NA,NA,NA,NA,NA,NA,NA,NA,NA,yes,NA,yes,NA
Exp1 - ws only,brazilian-portuguese,L_aligned,mbrola,lab,125,25,test ws,11,6,NA,NA,audio/p5.wav,audio/pp3.wav,part_word,NA,NA,NA,NA,NA,NA,2,1,0.935433879,0.5,NA,13,26,female,undergraduate,administration,yes,NA,no,NA,NA,yes,NA,yes,Spanish,3,5,NA,NA,NA,NA,NA,NA,NA,NA,NA,yes,NA,yes,NA
Exp1 - ws only,brazilian-portuguese,L_aligned,mbrola,lab,125,25,test ws,12,6,NA,NA,audio/p4.wav,audio/pp1.wav,part_word,NA,NA,NA,NA,NA,NA,2,1,1.906340409,0.5,NA,13,26,female,undergraduate,administration,yes,NA,no,NA,NA,yes,NA,yes,Spanish,3,5,NA,NA,NA,NA,NA,NA,NA,NA,NA,yes,NA,yes,NA
Exp1 - ws only,brazilian-portuguese,L_aligned,mbrola,lab,125,25,test ws,13,6,NA,NA,audio/p6.wav,audio/pp2.wav,part_word,NA,NA,NA,NA,NA,NA,1,1,1.837422099,0.5,NA,13,26,female,undergraduate,administration,yes,NA,no,NA,NA,yes,NA,yes,Spanish,3,5,NA,NA,NA,NA,NA,NA,NA,NA,NA,yes,NA,yes,NA
Exp1 - ws only,brazilian-portuguese,L_aligned,mbrola,lab,125,25,test ws,14,1,NA,NA,audio/p6.wav,audio/pp1.wav,part_word,NA,NA,NA,NA,NA,NA,1,1,1.522329986,0.5,NA,13,26,female,undergraduate,administration,yes,NA,no,NA,NA,yes,NA,yes,Spanish,3,5,NA,NA,NA,NA,NA,NA,NA,NA,NA,yes,NA,yes,NA
Exp1 - ws only,brazilian-portuguese,L_aligned,mbrola,lab,125,25,test ws,15,1,NA,NA,audio/p4.wav,audio/pp2.wav,part_word,NA,NA,NA,NA,NA,NA,2,1,1.237059464,0.5,NA,13,26,female,undergraduate,administration,yes,NA,no,NA,NA,yes,NA,yes,Spanish,3,5,NA,NA,NA,NA,NA,NA,NA,NA,NA,yes,NA,yes,NA
Exp1 - ws only,brazilian-portuguese,L_aligned,mbrola,lab,125,25,test ws,16,1,NA,NA,audio/p5.wav,audio/pp3.wav,part_word,NA,NA,NA,NA,NA,NA,1,1,2.677725891,0.5,NA,13,26,female,undergraduate,administration,yes,NA,no,NA,NA,yes,NA,yes,Spanish,3,5,NA,NA,NA,NA,NA,NA,NA,NA,NA,yes,NA,yes,NA
Exp1 - ws only,brazilian-portuguese,L_aligned,mbrola,lab,125,25,test ws,17,3,NA,NA,audio/p6.wav,audio/pp3.wav,part_word,NA,NA,NA,NA,NA,NA,1,0,3.989797187,0.5,NA,13,26,female,undergraduate,administration,yes,NA,no,NA,NA,yes,NA,yes,Spanish,3,5,NA,NA,NA,NA,NA,NA,NA,NA,NA,yes,NA,yes,NA
Exp1 - ws only,brazilian-portuguese,L_aligned,mbrola,lab,125,25,test ws,18,3,NA,NA,audio/p4.wav,audio/pp1.wav,part_word,NA,NA,NA,NA,NA,NA,2,1,2.54029581,0.5,NA,13,26,female,undergraduate,administration,yes,NA,no,NA,NA,yes,NA,yes,Spanish,3,5,NA,NA,NA,NA,NA,NA,NA,NA,NA,yes,NA,yes,NA
Exp1 - ws only,brazilian-portuguese,L_aligned,mbrola,lab,125,25,test ws,19,3,NA,NA,audio/p5.wav,audio/pp2.wav,part_word,NA,NA,NA,NA,NA,NA,2,1,3.826953011,0.5,NA,13,26,female,undergraduate,administration,yes,NA,no,NA,NA,yes,NA,yes,Spanish,3,5,NA,NA,NA,NA,NA,NA,NA,NA,NA,yes,NA,yes,NA
Exp1 - ws only,brazilian-portuguese,L_aligned,mbrola,lab,125,25,test ws,20,5,NA,NA,audio/p6.wav,audio/pp1.wav,part_word,NA,NA,NA,NA,NA,NA,1,1,3.342850789,0.5,NA,13,26,female,undergraduate,administration,yes,NA,no,NA,NA,yes,NA,yes,Spanish,3,5,NA,NA,NA,NA,NA,NA,NA,NA,NA,yes,NA,yes,NA
Exp1 - ws only,brazilian-portuguese,L_aligned,mbrola,lab,125,25,test ws,21,5,NA,NA,audio/p5.wav,audio/pp2.wav,part_word,NA,NA,NA,NA,NA,NA,2,0,6.371276007,0.5,NA,13,26,female,undergraduate,administration,yes,NA,no,NA,NA,yes,NA,yes,Spanish,3,5,NA,NA,NA,NA,NA,NA,NA,NA,NA,yes,NA,yes,NA
Exp1 - ws only,brazilian-portuguese,L_aligned,mbrola,lab,125,25,test ws,22,5,NA,NA,audio/p4.wav,audio/pp3.wav,part_word,NA,NA,NA,NA,NA,NA,1,0,2.239832823,0.5,NA,13,26,female,undergraduate,administration,yes,NA,no,NA,NA,yes,NA,yes,Spanish,3,5,NA,NA,NA,NA,NA,NA,NA,NA,NA,yes,NA,yes,NA
Exp1 - ws only,brazilian-portuguese,L_aligned,mbrola,lab,125,25,self evaluation ws,NA,NA,NA,NA,NA,NA,NA,NA,NA,NA,NA,NA,NA,2,NA,4.763694315,NA,NA,13,26,female,undergraduate,administration,yes,NA,no,NA,NA,yes,NA,yes,Spanish,3,5,NA,NA,NA,NA,NA,NA,NA,NA,NA,yes,NA,yes,NA
Exp1 - ws only,brazilian-portuguese,L_aligned,mbrola,lab,125,25,puzzle concentration,NA,NA,NA,NA,NA,NA,NA,NA,NA,NA,NA,NA,NA,4,NA,3.054220192,NA,NA,13,26,female,undergraduate,administration,yes,NA,no,NA,NA,yes,NA,yes,Spanish,3,5,NA,NA,NA,NA,NA,NA,NA,NA,NA,yes,NA,yes,NA
Exp1 - ws only,brazilian-portuguese,L_aligned,mbrola,lab,126,26,warm up ws,NA,NA,NA,NA,audio/bola.wav,audio/fabu.wav,NA,NA,NA,NA,NA,NA,NA,1,1,4.585729796,NA,NA,14,26,female,graduate,gerontology,yes,NA,yes,4,26,yes,NA,yes,Spanish,6,12,NA,NA,NA,NA,NA,NA,NA,NA,NA,yes,NA,yes,NA
Exp1 - ws only,brazilian-portuguese,L_aligned,mbrola,lab,126,26,warm up ws,NA,NA,NA,NA,audio/tela.wav,audio/bafi.wav,NA,NA,NA,NA,NA,NA,NA,2,1,3.050596923,NA,NA,14,26,female,graduate,gerontology,yes,NA,yes,4,26,yes,NA,yes,Spanish,6,12,NA,NA,NA,NA,NA,NA,NA,NA,NA,yes,NA,yes,NA
Exp1 - ws only,brazilian-portuguese,L_aligned,mbrola,lab,126,26,warm up ws,NA,NA,NA,NA,audio/cabo.wav,audio/guvi.wav,NA,NA,NA,NA,NA,NA,NA,2,1,2.951826203,NA,NA,14,26,female,graduate,gerontology,yes,NA,yes,4,26,yes,NA,yes,Spanish,6,12,NA,NA,NA,NA,NA,NA,NA,NA,NA,yes,NA,yes,NA
Exp1 - ws only,brazilian-portuguese,L_aligned,mbrola,lab,126,26,warm up ws,NA,NA,NA,NA,audio/pato.wav,audio/tibo.wav,NA,NA,NA,NA,NA,NA,NA,1,1,0.800533445,NA,NA,14,26,female,graduate,gerontology,yes,NA,yes,4,26,yes,NA,yes,Spanish,6,12,NA,NA,NA,NA,NA,NA,NA,NA,NA,yes,NA,yes,NA
Exp1 - ws only,brazilian-portuguese,L_aligned,mbrola,lab,126,26,test ws,5,4,NA,NA,audio/p5.wav,audio/pp1.wav,part_word,NA,NA,NA,NA,NA,NA,1,1,0.816683602,0.5,NA,14,26,female,graduate,gerontology,yes,NA,yes,4,26,yes,NA,yes,Spanish,6,12,NA,NA,NA,NA,NA,NA,NA,NA,NA,yes,NA,yes,NA
Exp1 - ws only,brazilian-portuguese,L_aligned,mbrola,lab,126,26,test ws,6,4,NA,NA,audio/p4.wav,audio/pp2.wav,part_word,NA,NA,NA,NA,NA,NA,2,1,0.683952971,0.5,NA,14,26,female,graduate,gerontology,yes,NA,yes,4,26,yes,NA,yes,Spanish,6,12,NA,NA,NA,NA,NA,NA,NA,NA,NA,yes,NA,yes,NA
Exp1 - ws only,brazilian-portuguese,L_aligned,mbrola,lab,126,26,test ws,7,4,NA,NA,audio/p6.wav,audio/pp3.wav,part_word,NA,NA,NA,NA,NA,NA,1,0,1.152724321,0.5,NA,14,26,female,graduate,gerontology,yes,NA,yes,4,26,yes,NA,yes,Spanish,6,12,NA,NA,NA,NA,NA,NA,NA,NA,NA,yes,NA,yes,NA
Exp1 - ws only,brazilian-portuguese,L_aligned,mbrola,lab,126,26,test ws,8,5,NA,NA,audio/p4.wav,audio/pp3.wav,part_word,NA,NA,NA,NA,NA,NA,2,1,0.649769491,0.5,NA,14,26,female,graduate,gerontology,yes,NA,yes,4,26,yes,NA,yes,Spanish,6,12,NA,NA,NA,NA,NA,NA,NA,NA,NA,yes,NA,yes,NA
Exp1 - ws only,brazilian-portuguese,L_aligned,mbrola,lab,126,26,test ws,9,5,NA,NA,audio/p5.wav,audio/pp2.wav,part_word,NA,NA,NA,NA,NA,NA,1,1,0.850771585,0.5,NA,14,26,female,graduate,gerontology,yes,NA,yes,4,26,yes,NA,yes,Spanish,6,12,NA,NA,NA,NA,NA,NA,NA,NA,NA,yes,NA,yes,NA
Exp1 - ws only,brazilian-portuguese,L_aligned,mbrola,lab,126,26,test ws,10,5,NA,NA,audio/p6.wav,audio/pp1.wav,part_word,NA,NA,NA,NA,NA,NA,1,1,0.917358909,0.5,NA,14,26,female,graduate,gerontology,yes,NA,yes,4,26,yes,NA,yes,Spanish,6,12,NA,NA,NA,NA,NA,NA,NA,NA,NA,yes,NA,yes,NA
Exp1 - ws only,brazilian-portuguese,L_aligned,mbrola,lab,126,26,test ws,11,2,NA,NA,audio/p5.wav,audio/pp2.wav,part_word,NA,NA,NA,NA,NA,NA,2,0,0.93419361,0.5,NA,14,26,female,graduate,gerontology,yes,NA,yes,4,26,yes,NA,yes,Spanish,6,12,NA,NA,NA,NA,NA,NA,NA,NA,NA,yes,NA,yes,NA
Exp1 - ws only,brazilian-portuguese,L_aligned,mbrola,lab,126,26,test ws,12,2,NA,NA,audio/p6.wav,audio/pp1.wav,part_word,NA,NA,NA,NA,NA,NA,1,1,0.750754494,0.5,NA,14,26,female,graduate,gerontology,yes,NA,yes,4,26,yes,NA,yes,Spanish,6,12,NA,NA,NA,NA,NA,NA,NA,NA,NA,yes,NA,yes,NA
Exp1 - ws only,brazilian-portuguese,L_aligned,mbrola,lab,126,26,test ws,13,2,NA,NA,audio/p4.wav,audio/pp3.wav,part_word,NA,NA,NA,NA,NA,NA,1,0,1.133345114,0.5,NA,14,26,female,graduate,gerontology,yes,NA,yes,4,26,yes,NA,yes,Spanish,6,12,NA,NA,NA,NA,NA,NA,NA,NA,NA,yes,NA,yes,NA
Exp1 - ws only,brazilian-portuguese,L_aligned,mbrola,lab,126,26,test ws,14,6,NA,NA,audio/p6.wav,audio/pp2.wav,part_word,NA,NA,NA,NA,NA,NA,2,0,1.467009564,0.5,NA,14,26,female,graduate,gerontology,yes,NA,yes,4,26,yes,NA,yes,Spanish,6,12,NA,NA,NA,NA,NA,NA,NA,NA,NA,yes,NA,yes,NA
Exp1 - ws only,brazilian-portuguese,L_aligned,mbrola,lab,126,26,test ws,15,6,NA,NA,audio/p5.wav,audio/pp3.wav,part_word,NA,NA,NA,NA,NA,NA,2,1,1.051109662,0.5,NA,14,26,female,graduate,gerontology,yes,NA,yes,4,26,yes,NA,yes,Spanish,6,12,NA,NA,NA,NA,NA,NA,NA,NA,NA,yes,NA,yes,NA
Exp1 - ws only,brazilian-portuguese,L_aligned,mbrola,lab,126,26,test ws,16,6,NA,NA,audio/p4.wav,audio/pp1.wav,part_word,NA,NA,NA,NA,NA,NA,2,1,0.617247838,0.5,NA,14,26,female,graduate,gerontology,yes,NA,yes,4,26,yes,NA,yes,Spanish,6,12,NA,NA,NA,NA,NA,NA,NA,NA,NA,yes,NA,yes,NA
Exp1 - ws only,brazilian-portuguese,L_aligned,mbrola,lab,126,26,test ws,17,1,NA,NA,audio/p4.wav,audio/pp2.wav,part_word,NA,NA,NA,NA,NA,NA,2,1,0.600719262,0.5,NA,14,26,female,graduate,gerontology,yes,NA,yes,4,26,yes,NA,yes,Spanish,6,12,NA,NA,NA,NA,NA,NA,NA,NA,NA,yes,NA,yes,NA
Exp1 - ws only,brazilian-portuguese,L_aligned,mbrola,lab,126,26,test ws,18,1,NA,NA,audio/p5.wav,audio/pp3.wav,part_word,NA,NA,NA,NA,NA,NA,1,1,0.717254219,0.5,NA,14,26,female,graduate,gerontology,yes,NA,yes,4,26,yes,NA,yes,Spanish,6,12,NA,NA,NA,NA,NA,NA,NA,NA,NA,yes,NA,yes,NA
Exp1 - ws only,brazilian-portuguese,L_aligned,mbrola,lab,126,26,test ws,19,1,NA,NA,audio/p6.wav,audio/pp1.wav,part_word,NA,NA,NA,NA,NA,NA,1,1,0.583625737,0.5,NA,14,26,female,graduate,gerontology,yes,NA,yes,4,26,yes,NA,yes,Spanish,6,12,NA,NA,NA,NA,NA,NA,NA,NA,NA,yes,NA,yes,NA
Exp1 - ws only,brazilian-portuguese,L_aligned,mbrola,lab,126,26,test ws,20,3,NA,NA,audio/p5.wav,audio/pp2.wav,part_word,NA,NA,NA,NA,NA,NA,1,0,0.800623141,0.5,NA,14,26,female,graduate,gerontology,yes,NA,yes,4,26,yes,NA,yes,Spanish,6,12,NA,NA,NA,NA,NA,NA,NA,NA,NA,yes,NA,yes,NA
Exp1 - ws only,brazilian-portuguese,L_aligned,mbrola,lab,126,26,test ws,21,3,NA,NA,audio/p6.wav,audio/pp3.wav,part_word,NA,NA,NA,NA,NA,NA,2,1,0.617285769,0.5,NA,14,26,female,graduate,gerontology,yes,NA,yes,4,26,yes,NA,yes,Spanish,6,12,NA,NA,NA,NA,NA,NA,NA,NA,NA,yes,NA,yes,NA
Exp1 - ws only,brazilian-portuguese,L_aligned,mbrola,lab,126,26,test ws,22,3,NA,NA,audio/p4.wav,audio/pp1.wav,part_word,NA,NA,NA,NA,NA,NA,2,1,0.517197278,0.5,NA,14,26,female,graduate,gerontology,yes,NA,yes,4,26,yes,NA,yes,Spanish,6,12,NA,NA,NA,NA,NA,NA,NA,NA,NA,yes,NA,yes,NA
Exp1 - ws only,brazilian-portuguese,L_aligned,mbrola,lab,126,26,self evaluation ws,NA,NA,NA,NA,NA,NA,NA,NA,NA,NA,NA,NA,NA,3,NA,7.785343613,NA,NA,14,26,female,graduate,gerontology,yes,NA,yes,4,26,yes,NA,yes,Spanish,6,12,NA,NA,NA,NA,NA,NA,NA,NA,NA,yes,NA,yes,NA
Exp1 - ws only,brazilian-portuguese,L_aligned,mbrola,lab,126,26,puzzle concentration,NA,NA,NA,NA,NA,NA,NA,NA,NA,NA,NA,NA,NA,4,NA,4.034482466,NA,NA,14,26,female,graduate,gerontology,yes,NA,yes,4,26,yes,NA,yes,Spanish,6,12,NA,NA,NA,NA,NA,NA,NA,NA,NA,yes,NA,yes,NA
Exp1 - ws only,brazilian-portuguese,L_aligned,mbrola,lab,127,27,warm up ws,NA,NA,NA,NA,audio/bola.wav,audio/fabu.wav,NA,NA,NA,NA,NA,NA,NA,1,1,8.401613722,NA,NA,15,27,female,graduate,production engineering,yes,NA,yes,2,23,yes,NA,yes,Spanish,6,8,NA,NA,NA,NA,NA,NA,NA,NA,NA,yes,NA,yes,NA
Exp1 - ws only,brazilian-portuguese,L_aligned,mbrola,lab,127,27,warm up ws,NA,NA,NA,NA,audio/pato.wav,audio/tibo.wav,NA,NA,NA,NA,NA,NA,NA,1,1,1.200650451,NA,NA,15,27,female,graduate,production engineering,yes,NA,yes,2,23,yes,NA,yes,Spanish,6,8,NA,NA,NA,NA,NA,NA,NA,NA,NA,yes,NA,yes,NA
Exp1 - ws only,brazilian-portuguese,L_aligned,mbrola,lab,127,27,warm up ws,NA,NA,NA,NA,audio/tela.wav,audio/bafi.wav,NA,NA,NA,NA,NA,NA,NA,2,1,1.48495096,NA,NA,15,27,female,graduate,production engineering,yes,NA,yes,2,23,yes,NA,yes,Spanish,6,8,NA,NA,NA,NA,NA,NA,NA,NA,NA,yes,NA,yes,NA
Exp1 - ws only,brazilian-portuguese,L_aligned,mbrola,lab,127,27,warm up ws,NA,NA,NA,NA,audio/cabo.wav,audio/guvi.wav,NA,NA,NA,NA,NA,NA,NA,2,1,1.400565932,NA,NA,15,27,female,graduate,production engineering,yes,NA,yes,2,23,yes,NA,yes,Spanish,6,8,NA,NA,NA,NA,NA,NA,NA,NA,NA,yes,NA,yes,NA
Exp1 - ws only,brazilian-portuguese,L_aligned,mbrola,lab,127,27,test ws,5,1,NA,NA,audio/p6.wav,audio/pp1.wav,part_word,NA,NA,NA,NA,NA,NA,2,0,1.085166408,0.5,NA,15,27,female,graduate,production engineering,yes,NA,yes,2,23,yes,NA,yes,Spanish,6,8,NA,NA,NA,NA,NA,NA,NA,NA,NA,yes,NA,yes,NA
Exp1 - ws only,brazilian-portuguese,L_aligned,mbrola,lab,127,27,test ws,6,1,NA,NA,audio/p5.wav,audio/pp3.wav,part_word,NA,NA,NA,NA,NA,NA,2,0,0.834037736,0.5,NA,15,27,female,graduate,production engineering,yes,NA,yes,2,23,yes,NA,yes,Spanish,6,8,NA,NA,NA,NA,NA,NA,NA,NA,NA,yes,NA,yes,NA
Exp1 - ws only,brazilian-portuguese,L_aligned,mbrola,lab,127,27,test ws,7,1,NA,NA,audio/p4.wav,audio/pp2.wav,part_word,NA,NA,NA,NA,NA,NA,1,0,1.467231349,0.5,NA,15,27,female,graduate,production engineering,yes,NA,yes,2,23,yes,NA,yes,Spanish,6,8,NA,NA,NA,NA,NA,NA,NA,NA,NA,yes,NA,yes,NA
Exp1 - ws only,brazilian-portuguese,L_aligned,mbrola,lab,127,27,test ws,8,4,NA,NA,audio/p5.wav,audio/pp1.wav,part_word,NA,NA,NA,NA,NA,NA,2,0,1.134423249,0.5,NA,15,27,female,graduate,production engineering,yes,NA,yes,2,23,yes,NA,yes,Spanish,6,8,NA,NA,NA,NA,NA,NA,NA,NA,NA,yes,NA,yes,NA
Exp1 - ws only,brazilian-portuguese,L_aligned,mbrola,lab,127,27,test ws,9,4,NA,NA,audio/p4.wav,audio/pp2.wav,part_word,NA,NA,NA,NA,NA,NA,2,1,1.783524707,0.5,NA,15,27,female,graduate,production engineering,yes,NA,yes,2,23,yes,NA,yes,Spanish,6,8,NA,NA,NA,NA,NA,NA,NA,NA,NA,yes,NA,yes,NA
Exp1 - ws only,brazilian-portuguese,L_aligned,mbrola,lab,127,27,test ws,10,4,NA,NA,audio/p6.wav,audio/pp3.wav,part_word,NA,NA,NA,NA,NA,NA,1,0,1.334380231,0.5,NA,15,27,female,graduate,production engineering,yes,NA,yes,2,23,yes,NA,yes,Spanish,6,8,NA,NA,NA,NA,NA,NA,NA,NA,NA,yes,NA,yes,NA
Exp1 - ws only,brazilian-portuguese,L_aligned,mbrola,lab,127,27,test ws,11,2,NA,NA,audio/p6.wav,audio/pp1.wav,part_word,NA,NA,NA,NA,NA,NA,2,0,0.916691322,0.5,NA,15,27,female,graduate,production engineering,yes,NA,yes,2,23,yes,NA,yes,Spanish,6,8,NA,NA,NA,NA,NA,NA,NA,NA,NA,yes,NA,yes,NA
Exp1 - ws only,brazilian-portuguese,L_aligned,mbrola,lab,127,27,test ws,12,2,NA,NA,audio/p4.wav,audio/pp3.wav,part_word,NA,NA,NA,NA,NA,NA,1,0,0.834196154,0.5,NA,15,27,female,graduate,production engineering,yes,NA,yes,2,23,yes,NA,yes,Spanish,6,8,NA,NA,NA,NA,NA,NA,NA,NA,NA,yes,NA,yes,NA
Exp1 - ws only,brazilian-portuguese,L_aligned,mbrola,lab,127,27,test ws,13,2,NA,NA,audio/p5.wav,audio/pp2.wav,part_word,NA,NA,NA,NA,NA,NA,1,1,2.000905883,0.5,NA,15,27,female,graduate,production engineering,yes,NA,yes,2,23,yes,NA,yes,Spanish,6,8,NA,NA,NA,NA,NA,NA,NA,NA,NA,yes,NA,yes,NA
Exp1 - ws only,brazilian-portuguese,L_aligned,mbrola,lab,127,27,test ws,14,5,NA,NA,audio/p6.wav,audio/pp1.wav,part_word,NA,NA,NA,NA,NA,NA,1,1,0.417339943,0.5,NA,15,27,female,graduate,production engineering,yes,NA,yes,2,23,yes,NA,yes,Spanish,6,8,NA,NA,NA,NA,NA,NA,NA,NA,NA,yes,NA,yes,NA
Exp1 - ws only,brazilian-portuguese,L_aligned,mbrola,lab,127,27,test ws,15,5,NA,NA,audio/p5.wav,audio/pp2.wav,part_word,NA,NA,NA,NA,NA,NA,2,0,1.517540889,0.5,NA,15,27,female,graduate,production engineering,yes,NA,yes,2,23,yes,NA,yes,Spanish,6,8,NA,NA,NA,NA,NA,NA,NA,NA,NA,yes,NA,yes,NA
Exp1 - ws only,brazilian-portuguese,L_aligned,mbrola,lab,127,27,test ws,16,5,NA,NA,audio/p4.wav,audio/pp3.wav,part_word,NA,NA,NA,NA,NA,NA,1,0,0.866942716,0.5,NA,15,27,female,graduate,production engineering,yes,NA,yes,2,23,yes,NA,yes,Spanish,6,8,NA,NA,NA,NA,NA,NA,NA,NA,NA,yes,NA,yes,NA
Exp1 - ws only,brazilian-portuguese,L_aligned,mbrola,lab,127,27,test ws,17,6,NA,NA,audio/p6.wav,audio/pp2.wav,part_word,NA,NA,NA,NA,NA,NA,1,1,0.084080241,0.5,NA,15,27,female,graduate,production engineering,yes,NA,yes,2,23,yes,NA,yes,Spanish,6,8,NA,NA,NA,NA,NA,NA,NA,NA,NA,yes,NA,yes,NA
Exp1 - ws only,brazilian-portuguese,L_aligned,mbrola,lab,127,27,test ws,18,6,NA,NA,audio/p5.wav,audio/pp3.wav,part_word,NA,NA,NA,NA,NA,NA,1,0,0.501263551,0.5,NA,15,27,female,graduate,production engineering,yes,NA,yes,2,23,yes,NA,yes,Spanish,6,8,NA,NA,NA,NA,NA,NA,NA,NA,NA,yes,NA,yes,NA
