experiment,native_language,speech_version,speech_recording,site,p_n_unique,participant_n,trial_type,trial_number,block_cswl,condition_cswl,target_audio_cswl,target_visual,distractor_visual_1,distractor_visual_2,distractor_visual_3,key_pressed,is_correct,rt,chance_level,id_quest,age,gender,education,major,born_native,other_native,live_abroad,months_abroad,age_abroad,native_speaker,alternative_native_language,speak_foreign_language,foreign_1,level_1,age_acquisition_1,foreign_2,level_2,age_acquisition_2,foreign_3,level_3,age_acquisition_3,foreign_4,level_4,age_acquisition_4,normal_hearing,hearing_impairment,normal_vision,vision_impairment,stimuli_set_pp,block_pp
1,brazilian-portuguese,L3_v1,mbrola,lab,258,1,warm up cswl,NA,NA,NA,audio/bola.wav,img/bola.jpg,img/casa.jpg,img/pato.jpg,img/gato.jpg,2,1,2.130602317,NA,214,24,female,undergraduate,chemical engineering,yes,NA,yes,2,24,yes,NA,yes,English,7,7,Spanish,3,15,NA,NA,NA,NA,NA,NA,yes,NA,yes,NA,NA,NA
1,brazilian-portuguese,L3_v1,mbrola,lab,258,1,warm up cswl,NA,NA,NA,audio/pato.wav,img/pato.jpg,img/bola.jpg,img/gato.jpg,img/casa.jpg,4,1,1.91331419,NA,214,24,female,undergraduate,chemical engineering,yes,NA,yes,2,24,yes,NA,yes,English,7,7,Spanish,3,15,NA,NA,NA,NA,NA,NA,yes,NA,yes,NA,NA,NA
1,brazilian-portuguese,L3_v1,mbrola,lab,258,1,test cswl,3,NA,NA,audio/pp1.wav,img/07.jpg,img/10.jpg,img/12.jpg,img/09.jpg,4,0,4.214043224,0.25,214,24,female,undergraduate,chemical engineering,yes,NA,yes,2,24,yes,NA,yes,English,7,7,Spanish,3,15,NA,NA,NA,NA,NA,NA,yes,NA,yes,NA,PP-,NA
1,brazilian-portuguese,L3_v1,mbrola,lab,258,1,test cswl,4,NA,NA,audio/pp4.wav,img/10.jpg,img/11.jpg,img/12.jpg,img/07.jpg,2,1,3.814216103,0.25,214,24,female,undergraduate,chemical engineering,yes,NA,yes,2,24,yes,NA,yes,English,7,7,Spanish,3,15,NA,NA,NA,NA,NA,NA,yes,NA,yes,NA,PP-,NA
1,brazilian-portuguese,L3_v1,mbrola,lab,258,1,test cswl,5,NA,NA,audio/pp2.wav,img/08.jpg,img/10.jpg,img/09.jpg,img/11.jpg,3,1,1.863511701,0.25,214,24,female,undergraduate,chemical engineering,yes,NA,yes,2,24,yes,NA,yes,English,7,7,Spanish,3,15,NA,NA,NA,NA,NA,NA,yes,NA,yes,NA,PP-,NA
1,brazilian-portuguese,L3_v1,mbrola,lab,258,1,test cswl,6,NA,NA,audio/p5.wav,img/05.jpg,img/02.jpg,img/03.jpg,img/04.jpg,2,1,3.303668319,0.25,214,24,female,undergraduate,chemical engineering,yes,NA,yes,2,24,yes,NA,yes,English,7,7,Spanish,3,15,NA,NA,NA,NA,NA,NA,yes,NA,yes,NA,PP+,NA
1,brazilian-portuguese,L3_v1,mbrola,lab,258,1,test cswl,7,NA,NA,audio/p2.wav,img/02.jpg,img/03.jpg,img/04.jpg,img/05.jpg,2,0,3.377251931,0.25,214,24,female,undergraduate,chemical engineering,yes,NA,yes,2,24,yes,NA,yes,English,7,7,Spanish,3,15,NA,NA,NA,NA,NA,NA,yes,NA,yes,NA,PP+,NA
1,brazilian-portuguese,L3_v1,mbrola,lab,258,1,test cswl,8,NA,NA,audio/p1.wav,img/01.jpg,img/05.jpg,img/06.jpg,img/03.jpg,4,1,5.617554857,0.25,214,24,female,undergraduate,chemical engineering,yes,NA,yes,2,24,yes,NA,yes,English,7,7,Spanish,3,15,NA,NA,NA,NA,NA,NA,yes,NA,yes,NA,PP+,NA
1,brazilian-portuguese,L3_v1,mbrola,lab,258,1,test cswl,9,NA,NA,audio/pp6.wav,img/12.jpg,img/09.jpg,img/10.jpg,img/08.jpg,4,1,1.804326878,0.25,214,24,female,undergraduate,chemical engineering,yes,NA,yes,2,24,yes,NA,yes,English,7,7,Spanish,3,15,NA,NA,NA,NA,NA,NA,yes,NA,yes,NA,PP-,NA
1,brazilian-portuguese,L3_v1,mbrola,lab,258,1,test cswl,10,NA,NA,audio/pp5.wav,img/11.jpg,img/09.jpg,img/10.jpg,img/08.jpg,2,1,1.701049362,0.25,214,24,female,undergraduate,chemical engineering,yes,NA,yes,2,24,yes,NA,yes,English,7,7,Spanish,3,15,NA,NA,NA,NA,NA,NA,yes,NA,yes,NA,PP-,NA
1,brazilian-portuguese,L3_v1,mbrola,lab,258,1,test cswl,11,NA,NA,audio/pp1.wav,img/07.jpg,img/11.jpg,img/12.jpg,img/09.jpg,3,0,5.003020251,0.25,214,24,female,undergraduate,chemical engineering,yes,NA,yes,2,24,yes,NA,yes,English,7,7,Spanish,3,15,NA,NA,NA,NA,NA,NA,yes,NA,yes,NA,PP-,NA
1,brazilian-portuguese,L3_v1,mbrola,lab,258,1,test cswl,12,NA,NA,audio/pp6.wav,img/12.jpg,img/07.jpg,img/10.jpg,img/08.jpg,1,1,2.900126466,0.25,214,24,female,undergraduate,chemical engineering,yes,NA,yes,2,24,yes,NA,yes,English,7,7,Spanish,3,15,NA,NA,NA,NA,NA,NA,yes,NA,yes,NA,PP-,NA
1,brazilian-portuguese,L3_v1,mbrola,lab,258,1,test cswl,13,NA,NA,audio/p3.wav,img/03.jpg,img/01.jpg,img/05.jpg,img/06.jpg,1,1,1.477562794,0.25,214,24,female,undergraduate,chemical engineering,yes,NA,yes,2,24,yes,NA,yes,English,7,7,Spanish,3,15,NA,NA,NA,NA,NA,NA,yes,NA,yes,NA,PP+,NA
1,brazilian-portuguese,L3_v1,mbrola,lab,258,1,test cswl,14,NA,NA,audio/p2.wav,img/02.jpg,img/05.jpg,img/04.jpg,img/06.jpg,2,0,3.49210698,0.25,214,24,female,undergraduate,chemical engineering,yes,NA,yes,2,24,yes,NA,yes,English,7,7,Spanish,3,15,NA,NA,NA,NA,NA,NA,yes,NA,yes,NA,PP+,NA
1,brazilian-portuguese,L3_v1,mbrola,lab,258,1,test cswl,15,NA,NA,audio/p6.wav,img/06.jpg,img/01.jpg,img/02.jpg,img/03.jpg,2,1,2.021713076,0.25,214,24,female,undergraduate,chemical engineering,yes,NA,yes,2,24,yes,NA,yes,English,7,7,Spanish,3,15,NA,NA,NA,NA,NA,NA,yes,NA,yes,NA,PP+,NA
1,brazilian-portuguese,L3_v1,mbrola,lab,258,1,test cswl,16,NA,NA,audio/p1.wav,img/01.jpg,img/03.jpg,img/05.jpg,img/04.jpg,4,0,3.259569353,0.25,214,24,female,undergraduate,chemical engineering,yes,NA,yes,2,24,yes,NA,yes,English,7,7,Spanish,3,15,NA,NA,NA,NA,NA,NA,yes,NA,yes,NA,PP+,NA
1,brazilian-portuguese,L3_v1,mbrola,lab,258,1,test cswl,17,NA,NA,audio/pp5.wav,img/11.jpg,img/07.jpg,img/09.jpg,img/08.jpg,3,1,4.210038841,0.25,214,24,female,undergraduate,chemical engineering,yes,NA,yes,2,24,yes,NA,yes,English,7,7,Spanish,3,15,NA,NA,NA,NA,NA,NA,yes,NA,yes,NA,PP-,NA
1,brazilian-portuguese,L3_v1,mbrola,lab,258,1,test cswl,18,NA,NA,audio/pp4.wav,img/10.jpg,img/08.jpg,img/11.jpg,img/07.jpg,1,1,5.243853445,0.25,214,24,female,undergraduate,chemical engineering,yes,NA,yes,2,24,yes,NA,yes,English,7,7,Spanish,3,15,NA,NA,NA,NA,NA,NA,yes,NA,yes,NA,PP-,NA
1,brazilian-portuguese,L3_v1,mbrola,lab,258,1,test cswl,19,NA,NA,audio/pp3.wav,img/09.jpg,img/12.jpg,img/07.jpg,img/11.jpg,3,0,2.974708466,0.25,214,24,female,undergraduate,chemical engineering,yes,NA,yes,2,24,yes,NA,yes,English,7,7,Spanish,3,15,NA,NA,NA,NA,NA,NA,yes,NA,yes,NA,PP-,NA
1,brazilian-portuguese,L3_v1,mbrola,lab,258,1,test cswl,20,NA,NA,audio/p3.wav,img/03.jpg,img/02.jpg,img/05.jpg,img/01.jpg,3,1,1.435303804,0.25,214,24,female,undergraduate,chemical engineering,yes,NA,yes,2,24,yes,NA,yes,English,7,7,Spanish,3,15,NA,NA,NA,NA,NA,NA,yes,NA,yes,NA,PP+,NA
1,brazilian-portuguese,L3_v1,mbrola,lab,258,1,test cswl,21,NA,NA,audio/p5.wav,img/05.jpg,img/01.jpg,img/04.jpg,img/02.jpg,3,0,4.462685623,0.25,214,24,female,undergraduate,chemical engineering,yes,NA,yes,2,24,yes,NA,yes,English,7,7,Spanish,3,15,NA,NA,NA,NA,NA,NA,yes,NA,yes,NA,PP+,NA
1,brazilian-portuguese,L3_v1,mbrola,lab,258,1,test cswl,22,NA,NA,audio/p4.wav,img/04.jpg,img/02.jpg,img/06.jpg,img/01.jpg,4,0,4.940035169,0.25,214,24,female,undergraduate,chemical engineering,yes,NA,yes,2,24,yes,NA,yes,English,7,7,Spanish,3,15,NA,NA,NA,NA,NA,NA,yes,NA,yes,NA,PP+,NA
1,brazilian-portuguese,L3_v1,mbrola,lab,258,1,test cswl,23,NA,NA,audio/p6.wav,img/06.jpg,img/04.jpg,img/03.jpg,img/02.jpg,2,1,2.086101374,0.25,214,24,female,undergraduate,chemical engineering,yes,NA,yes,2,24,yes,NA,yes,English,7,7,Spanish,3,15,NA,NA,NA,NA,NA,NA,yes,NA,yes,NA,PP+,NA
1,brazilian-portuguese,L3_v1,mbrola,lab,258,1,test cswl,24,NA,NA,audio/pp3.wav,img/09.jpg,img/12.jpg,img/08.jpg,img/07.jpg,4,1,3.413957355,0.25,214,24,female,undergraduate,chemical engineering,yes,NA,yes,2,24,yes,NA,yes,English,7,7,Spanish,3,15,NA,NA,NA,NA,NA,NA,yes,NA,yes,NA,PP-,NA
1,brazilian-portuguese,L3_v1,mbrola,lab,258,1,test cswl,25,NA,NA,audio/pp2.wav,img/08.jpg,img/12.jpg,img/11.jpg,img/10.jpg,3,1,2.423219951,0.25,214,24,female,undergraduate,chemical engineering,yes,NA,yes,2,24,yes,NA,yes,English,7,7,Spanish,3,15,NA,NA,NA,NA,NA,NA,yes,NA,yes,NA,PP-,NA
1,brazilian-portuguese,L3_v1,mbrola,lab,258,1,test cswl,26,NA,NA,audio/p4.wav,img/04.jpg,img/01.jpg,img/06.jpg,img/05.jpg,4,0,6.31143761,0.25,214,24,female,undergraduate,chemical engineering,yes,NA,yes,2,24,yes,NA,yes,English,7,7,Spanish,3,15,NA,NA,NA,NA,NA,NA,yes,NA,yes,NA,PP+,NA
1,brazilian-portuguese,L3_v1,mbrola,lab,258,1,self evaluation cswl,NA,NA,NA,NA,NA,NA,NA,NA,2,NA,5.777131509,NA,214,24,female,undergraduate,chemical engineering,yes,NA,yes,2,24,yes,NA,yes,English,7,7,Spanish,3,15,NA,NA,NA,NA,NA,NA,yes,NA,yes,NA,NA,NA
1,brazilian-portuguese,L3_v1,mbrola,lab,259,2,warm up cswl,NA,NA,NA,audio/bola.wav,img/bola.jpg,img/casa.jpg,img/pato.jpg,img/gato.jpg,1,0,4.568069404,NA,215,17,female,undergraduate,special education,yes,NA,no,NA,NA,yes,NA,yes,Spanish,4,11,English,3,10,NA,NA,NA,NA,NA,NA,yes,NA,yes,NA,NA,NA
1,brazilian-portuguese,L3_v1,mbrola,lab,259,2,warm up cswl,NA,NA,NA,audio/pato.wav,img/pato.jpg,img/bola.jpg,img/gato.jpg,img/casa.jpg,4,1,3.80026409,NA,215,17,female,undergraduate,special education,yes,NA,no,NA,NA,yes,NA,yes,Spanish,4,11,English,3,10,NA,NA,NA,NA,NA,NA,yes,NA,yes,NA,NA,NA
1,brazilian-portuguese,L3_v1,mbrola,lab,259,2,test cswl,3,NA,NA,audio/pp5.wav,img/11.jpg,img/09.jpg,img/10.jpg,img/08.jpg,4,0,2.851247532,0.25,215,17,female,undergraduate,special education,yes,NA,no,NA,NA,yes,NA,yes,Spanish,4,11,English,3,10,NA,NA,NA,NA,NA,NA,yes,NA,yes,NA,PP-,NA
1,brazilian-portuguese,L3_v1,mbrola,lab,259,2,test cswl,4,NA,NA,audio/p1.wav,img/01.jpg,img/05.jpg,img/06.jpg,img/03.jpg,4,1,2.40092302,0.25,215,17,female,undergraduate,special education,yes,NA,no,NA,NA,yes,NA,yes,Spanish,4,11,English,3,10,NA,NA,NA,NA,NA,NA,yes,NA,yes,NA,PP+,NA
1,brazilian-portuguese,L3_v1,mbrola,lab,259,2,test cswl,5,NA,NA,audio/p2.wav,img/02.jpg,img/03.jpg,img/04.jpg,img/05.jpg,2,0,2.134190487,0.25,215,17,female,undergraduate,special education,yes,NA,no,NA,NA,yes,NA,yes,Spanish,4,11,English,3,10,NA,NA,NA,NA,NA,NA,yes,NA,yes,NA,PP+,NA
1,brazilian-portuguese,L3_v1,mbrola,lab,259,2,test cswl,6,NA,NA,audio/p4.wav,img/04.jpg,img/02.jpg,img/06.jpg,img/01.jpg,3,0,3.450967556,0.25,215,17,female,undergraduate,special education,yes,NA,no,NA,NA,yes,NA,yes,Spanish,4,11,English,3,10,NA,NA,NA,NA,NA,NA,yes,NA,yes,NA,PP+,NA
1,brazilian-portuguese,L3_v1,mbrola,lab,259,2,test cswl,7,NA,NA,audio/pp2.wav,img/08.jpg,img/10.jpg,img/09.jpg,img/11.jpg,1,0,3.96784869,0.25,215,17,female,undergraduate,special education,yes,NA,no,NA,NA,yes,NA,yes,Spanish,4,11,English,3,10,NA,NA,NA,NA,NA,NA,yes,NA,yes,NA,PP-,NA
1,brazilian-portuguese,L3_v1,mbrola,lab,259,2,test cswl,8,NA,NA,audio/pp3.wav,img/09.jpg,img/12.jpg,img/07.jpg,img/11.jpg,2,1,2.584176743,0.25,215,17,female,undergraduate,special education,yes,NA,no,NA,NA,yes,NA,yes,Spanish,4,11,English,3,10,NA,NA,NA,NA,NA,NA,yes,NA,yes,NA,PP-,NA
1,brazilian-portuguese,L3_v1,mbrola,lab,259,2,test cswl,9,NA,NA,audio/p1.wav,img/01.jpg,img/03.jpg,img/05.jpg,img/04.jpg,1,1,2.884377912,0.25,215,17,female,undergraduate,special education,yes,NA,no,NA,NA,yes,NA,yes,Spanish,4,11,English,3,10,NA,NA,NA,NA,NA,NA,yes,NA,yes,NA,PP+,NA
1,brazilian-portuguese,L3_v1,mbrola,lab,259,2,test cswl,10,NA,NA,audio/pp6.wav,img/12.jpg,img/07.jpg,img/10.jpg,img/08.jpg,1,1,1.500859475,0.25,215,17,female,undergraduate,special education,yes,NA,no,NA,NA,yes,NA,yes,Spanish,4,11,English,3,10,NA,NA,NA,NA,NA,NA,yes,NA,yes,NA,PP-,NA
1,brazilian-portuguese,L3_v1,mbrola,lab,259,2,test cswl,11,NA,NA,audio/p5.wav,img/05.jpg,img/02.jpg,img/03.jpg,img/04.jpg,2,1,3.767672778,0.25,215,17,female,undergraduate,special education,yes,NA,no,NA,NA,yes,NA,yes,Spanish,4,11,English,3,10,NA,NA,NA,NA,NA,NA,yes,NA,yes,NA,PP+,NA
1,brazilian-portuguese,L3_v1,mbrola,lab,259,2,test cswl,12,NA,NA,audio/pp2.wav,img/08.jpg,img/12.jpg,img/11.jpg,img/10.jpg,1,0,1.301116871,0.25,215,17,female,undergraduate,special education,yes,NA,no,NA,NA,yes,NA,yes,Spanish,4,11,English,3,10,NA,NA,NA,NA,NA,NA,yes,NA,yes,NA,PP-,NA
1,brazilian-portuguese,L3_v1,mbrola,lab,259,2,test cswl,13,NA,NA,audio/pp6.wav,img/12.jpg,img/09.jpg,img/10.jpg,img/08.jpg,4,1,3.050914274,0.25,215,17,female,undergraduate,special education,yes,NA,no,NA,NA,yes,NA,yes,Spanish,4,11,English,3,10,NA,NA,NA,NA,NA,NA,yes,NA,yes,NA,PP-,NA
1,brazilian-portuguese,L3_v1,mbrola,lab,259,2,test cswl,14,NA,NA,audio/p6.wav,img/06.jpg,img/04.jpg,img/03.jpg,img/02.jpg,2,1,2.850932927,0.25,215,17,female,undergraduate,special education,yes,NA,no,NA,NA,yes,NA,yes,Spanish,4,11,English,3,10,NA,NA,NA,NA,NA,NA,yes,NA,yes,NA,PP+,NA
1,brazilian-portuguese,L3_v1,mbrola,lab,259,2,test cswl,15,NA,NA,audio/pp3.wav,img/09.jpg,img/12.jpg,img/08.jpg,img/07.jpg,4,1,1.300829487,0.25,215,17,female,undergraduate,special education,yes,NA,no,NA,NA,yes,NA,yes,Spanish,4,11,English,3,10,NA,NA,NA,NA,NA,NA,yes,NA,yes,NA,PP-,NA
1,brazilian-portuguese,L3_v1,mbrola,lab,259,2,test cswl,16,NA,NA,audio/p3.wav,img/03.jpg,img/02.jpg,img/05.jpg,img/01.jpg,2,0,2.517110952,0.25,215,17,female,undergraduate,special education,yes,NA,no,NA,NA,yes,NA,yes,Spanish,4,11,English,3,10,NA,NA,NA,NA,NA,NA,yes,NA,yes,NA,PP+,NA
1,brazilian-portuguese,L3_v1,mbrola,lab,259,2,test cswl,17,NA,NA,audio/pp1.wav,img/07.jpg,img/10.jpg,img/12.jpg,img/09.jpg,2,1,2.417711781,0.25,215,17,female,undergraduate,special education,yes,NA,no,NA,NA,yes,NA,yes,Spanish,4,11,English,3,10,NA,NA,NA,NA,NA,NA,yes,NA,yes,NA,PP-,NA
1,brazilian-portuguese,L3_v1,mbrola,lab,259,2,test cswl,18,NA,NA,audio/p4.wav,img/04.jpg,img/01.jpg,img/06.jpg,img/05.jpg,3,0,3.517670993,0.25,215,17,female,undergraduate,special education,yes,NA,no,NA,NA,yes,NA,yes,Spanish,4,11,English,3,10,NA,NA,NA,NA,NA,NA,yes,NA,yes,NA,PP+,NA
1,brazilian-portuguese,L3_v1,mbrola,lab,259,2,test cswl,19,NA,NA,audio/pp4.wav,img/10.jpg,img/11.jpg,img/12.jpg,img/07.jpg,4,0,3.08362875,0.25,215,17,female,undergraduate,special education,yes,NA,no,NA,NA,yes,NA,yes,Spanish,4,11,English,3,10,NA,NA,NA,NA,NA,NA,yes,NA,yes,NA,PP-,NA
1,brazilian-portuguese,L3_v1,mbrola,lab,259,2,test cswl,20,NA,NA,audio/pp1.wav,img/07.jpg,img/11.jpg,img/12.jpg,img/09.jpg,3,0,1.767602717,0.25,215,17,female,undergraduate,special education,yes,NA,no,NA,NA,yes,NA,yes,Spanish,4,11,English,3,10,NA,NA,NA,NA,NA,NA,yes,NA,yes,NA,PP-,NA
1,brazilian-portuguese,L3_v1,mbrola,lab,259,2,test cswl,21,NA,NA,audio/p5.wav,img/05.jpg,img/01.jpg,img/04.jpg,img/02.jpg,3,0,5.601422015,0.25,215,17,female,undergraduate,special education,yes,NA,no,NA,NA,yes,NA,yes,Spanish,4,11,English,3,10,NA,NA,NA,NA,NA,NA,yes,NA,yes,NA,PP+,NA
1,brazilian-portuguese,L3_v1,mbrola,lab,259,2,test cswl,22,NA,NA,audio/pp4.wav,img/10.jpg,img/08.jpg,img/11.jpg,img/07.jpg,2,0,4.800986566,0.25,215,17,female,undergraduate,special education,yes,NA,no,NA,NA,yes,NA,yes,Spanish,4,11,English,3,10,NA,NA,NA,NA,NA,NA,yes,NA,yes,NA,PP-,NA
1,brazilian-portuguese,L3_v1,mbrola,lab,259,2,test cswl,23,NA,NA,audio/p3.wav,img/03.jpg,img/01.jpg,img/05.jpg,img/06.jpg,3,0,4.901561156,0.25,215,17,female,undergraduate,special education,yes,NA,no,NA,NA,yes,NA,yes,Spanish,4,11,English,3,10,NA,NA,NA,NA,NA,NA,yes,NA,yes,NA,PP+,NA
1,brazilian-portuguese,L3_v1,mbrola,lab,259,2,test cswl,24,NA,NA,audio/p6.wav,img/06.jpg,img/01.jpg,img/02.jpg,img/03.jpg,4,0,3.400897584,0.25,215,17,female,undergraduate,special education,yes,NA,no,NA,NA,yes,NA,yes,Spanish,4,11,English,3,10,NA,NA,NA,NA,NA,NA,yes,NA,yes,NA,PP+,NA
1,brazilian-portuguese,L3_v1,mbrola,lab,259,2,test cswl,25,NA,NA,audio/pp5.wav,img/11.jpg,img/07.jpg,img/09.jpg,img/08.jpg,3,1,2.784534277,0.25,215,17,female,undergraduate,special education,yes,NA,no,NA,NA,yes,NA,yes,Spanish,4,11,English,3,10,NA,NA,NA,NA,NA,NA,yes,NA,yes,NA,PP-,NA
1,brazilian-portuguese,L3_v1,mbrola,lab,259,2,test cswl,26,NA,NA,audio/p2.wav,img/02.jpg,img/05.jpg,img/04.jpg,img/06.jpg,3,1,4.65134294,0.25,215,17,female,undergraduate,special education,yes,NA,no,NA,NA,yes,NA,yes,Spanish,4,11,English,3,10,NA,NA,NA,NA,NA,NA,yes,NA,yes,NA,PP+,NA
1,brazilian-portuguese,L3_v1,mbrola,lab,259,2,self evaluation cswl,NA,NA,NA,NA,NA,NA,NA,NA,1,NA,5.217543902,NA,215,17,female,undergraduate,special education,yes,NA,no,NA,NA,yes,NA,yes,Spanish,4,11,English,3,10,NA,NA,NA,NA,NA,NA,yes,NA,yes,NA,NA,NA
1,brazilian-portuguese,L3_v1,mbrola,lab,260,3,warm up cswl,NA,NA,NA,audio/bola.wav,img/bola.jpg,img/casa.jpg,img/pato.jpg,img/gato.jpg,2,1,4.533998333,NA,216,32,female,graduate,biology,yes,NA,yes,5,32,yes,NA,yes,English,5,14,NA,NA,NA,NA,NA,NA,NA,NA,NA,yes,NA,yes,NA,NA,NA
1,brazilian-portuguese,L3_v1,mbrola,lab,260,3,warm up cswl,NA,NA,NA,audio/pato.wav,img/pato.jpg,img/bola.jpg,img/gato.jpg,img/casa.jpg,4,1,2.367541403,NA,216,32,female,graduate,biology,yes,NA,yes,5,32,yes,NA,yes,English,5,14,NA,NA,NA,NA,NA,NA,NA,NA,NA,yes,NA,yes,NA,NA,NA
1,brazilian-portuguese,L3_v1,mbrola,lab,260,3,test cswl,3,NA,NA,audio/p3.wav,img/03.jpg,img/01.jpg,img/05.jpg,img/06.jpg,1,1,3.734272865,0.25,216,32,female,graduate,biology,yes,NA,yes,5,32,yes,NA,yes,English,5,14,NA,NA,NA,NA,NA,NA,NA,NA,NA,yes,NA,yes,NA,PP+,NA
1,brazilian-portuguese,L3_v1,mbrola,lab,260,3,test cswl,4,NA,NA,audio/pp4.wav,img/10.jpg,img/08.jpg,img/11.jpg,img/07.jpg,1,1,1.900902939,0.25,216,32,female,graduate,biology,yes,NA,yes,5,32,yes,NA,yes,English,5,14,NA,NA,NA,NA,NA,NA,NA,NA,NA,yes,NA,yes,NA,PP-,NA
1,brazilian-portuguese,L3_v1,mbrola,lab,260,3,test cswl,5,NA,NA,audio/p2.wav,img/02.jpg,img/03.jpg,img/04.jpg,img/05.jpg,3,1,3.251168725,0.25,216,32,female,graduate,biology,yes,NA,yes,5,32,yes,NA,yes,English,5,14,NA,NA,NA,NA,NA,NA,NA,NA,NA,yes,NA,yes,NA,PP+,NA
1,brazilian-portuguese,L3_v1,mbrola,lab,260,3,test cswl,6,NA,NA,audio/p2.wav,img/02.jpg,img/05.jpg,img/04.jpg,img/06.jpg,3,1,3.401122493,0.25,216,32,female,graduate,biology,yes,NA,yes,5,32,yes,NA,yes,English,5,14,NA,NA,NA,NA,NA,NA,NA,NA,NA,yes,NA,yes,NA,PP+,NA
1,brazilian-portuguese,L3_v1,mbrola,lab,260,3,test cswl,7,NA,NA,audio/pp6.wav,img/12.jpg,img/07.jpg,img/10.jpg,img/08.jpg,1,1,4.901381764,0.25,216,32,female,graduate,biology,yes,NA,yes,5,32,yes,NA,yes,English,5,14,NA,NA,NA,NA,NA,NA,NA,NA,NA,yes,NA,yes,NA,PP-,NA
1,brazilian-portuguese,L3_v1,mbrola,lab,260,3,test cswl,8,NA,NA,audio/p4.wav,img/04.jpg,img/02.jpg,img/06.jpg,img/01.jpg,1,1,4.251206656,0.25,216,32,female,graduate,biology,yes,NA,yes,5,32,yes,NA,yes,English,5,14,NA,NA,NA,NA,NA,NA,NA,NA,NA,yes,NA,yes,NA,PP+,NA
1,brazilian-portuguese,L3_v1,mbrola,lab,260,3,test cswl,9,NA,NA,audio/pp1.wav,img/07.jpg,img/11.jpg,img/12.jpg,img/09.jpg,4,1,4.001197285,0.25,216,32,female,graduate,biology,yes,NA,yes,5,32,yes,NA,yes,English,5,14,NA,NA,NA,NA,NA,NA,NA,NA,NA,yes,NA,yes,NA,PP-,NA
1,brazilian-portuguese,L3_v1,mbrola,lab,260,3,test cswl,10,NA,NA,audio/p6.wav,img/06.jpg,img/04.jpg,img/03.jpg,img/02.jpg,2,1,1.817423236,0.25,216,32,female,graduate,biology,yes,NA,yes,5,32,yes,NA,yes,English,5,14,NA,NA,NA,NA,NA,NA,NA,NA,NA,yes,NA,yes,NA,PP+,NA
1,brazilian-portuguese,L3_v1,mbrola,lab,260,3,test cswl,11,NA,NA,audio/p4.wav,img/04.jpg,img/01.jpg,img/06.jpg,img/05.jpg,2,1,3.034553466,0.25,216,32,female,graduate,biology,yes,NA,yes,5,32,yes,NA,yes,English,5,14,NA,NA,NA,NA,NA,NA,NA,NA,NA,yes,NA,yes,NA,PP+,NA
1,brazilian-portuguese,L3_v1,mbrola,lab,260,3,test cswl,12,NA,NA,audio/p1.wav,img/01.jpg,img/05.jpg,img/06.jpg,img/03.jpg,4,1,1.584281165,0.25,216,32,female,graduate,biology,yes,NA,yes,5,32,yes,NA,yes,English,5,14,NA,NA,NA,NA,NA,NA,NA,NA,NA,yes,NA,yes,NA,PP+,NA
1,brazilian-portuguese,L3_v1,mbrola,lab,260,3,test cswl,13,NA,NA,audio/pp5.wav,img/11.jpg,img/09.jpg,img/10.jpg,img/08.jpg,2,1,2.434351048,0.25,216,32,female,graduate,biology,yes,NA,yes,5,32,yes,NA,yes,English,5,14,NA,NA,NA,NA,NA,NA,NA,NA,NA,yes,NA,yes,NA,PP-,NA
1,brazilian-portuguese,L3_v1,mbrola,lab,260,3,test cswl,14,NA,NA,audio/pp2.wav,img/08.jpg,img/10.jpg,img/09.jpg,img/11.jpg,3,1,4.784674399,0.25,216,32,female,graduate,biology,yes,NA,yes,5,32,yes,NA,yes,English,5,14,NA,NA,NA,NA,NA,NA,NA,NA,NA,yes,NA,yes,NA,PP-,NA
1,brazilian-portuguese,L3_v1,mbrola,lab,260,3,test cswl,15,NA,NA,audio/pp5.wav,img/11.jpg,img/07.jpg,img/09.jpg,img/08.jpg,3,1,3.851106518,0.25,216,32,female,graduate,biology,yes,NA,yes,5,32,yes,NA,yes,English,5,14,NA,NA,NA,NA,NA,NA,NA,NA,NA,yes,NA,yes,NA,PP-,NA
1,brazilian-portuguese,L3_v1,mbrola,lab,260,3,test cswl,16,NA,NA,audio/pp6.wav,img/12.jpg,img/09.jpg,img/10.jpg,img/08.jpg,4,1,2.083962097,0.25,216,32,female,graduate,biology,yes,NA,yes,5,32,yes,NA,yes,English,5,14,NA,NA,NA,NA,NA,NA,NA,NA,NA,yes,NA,yes,NA,PP-,NA
1,brazilian-portuguese,L3_v1,mbrola,lab,260,3,test cswl,17,NA,NA,audio/p5.wav,img/05.jpg,img/01.jpg,img/04.jpg,img/02.jpg,4,1,6.618698971,0.25,216,32,female,graduate,biology,yes,NA,yes,5,32,yes,NA,yes,English,5,14,NA,NA,NA,NA,NA,NA,NA,NA,NA,yes,NA,yes,NA,PP+,NA
1,brazilian-portuguese,L3_v1,mbrola,lab,260,3,test cswl,18,NA,NA,audio/pp3.wav,img/09.jpg,img/12.jpg,img/08.jpg,img/07.jpg,4,1,1.484089011,0.25,216,32,female,graduate,biology,yes,NA,yes,5,32,yes,NA,yes,English,5,14,NA,NA,NA,NA,NA,NA,NA,NA,NA,yes,NA,yes,NA,PP-,NA
1,brazilian-portuguese,L3_v1,mbrola,lab,260,3,test cswl,19,NA,NA,audio/p3.wav,img/03.jpg,img/02.jpg,img/05.jpg,img/01.jpg,3,1,5.067811026,0.25,216,32,female,graduate,biology,yes,NA,yes,5,32,yes,NA,yes,English,5,14,NA,NA,NA,NA,NA,NA,NA,NA,NA,yes,NA,yes,NA,PP+,NA
1,brazilian-portuguese,L3_v1,mbrola,lab,260,3,test cswl,20,NA,NA,audio/pp2.wav,img/08.jpg,img/12.jpg,img/11.jpg,img/10.jpg,3,1,6.984570066,0.25,216,32,female,graduate,biology,yes,NA,yes,5,32,yes,NA,yes,English,5,14,NA,NA,NA,NA,NA,NA,NA,NA,NA,yes,NA,yes,NA,PP-,NA
1,brazilian-portuguese,L3_v1,mbrola,lab,260,3,test cswl,21,NA,NA,audio/p5.wav,img/05.jpg,img/02.jpg,img/03.jpg,img/04.jpg,2,1,3.701188449,0.25,216,32,female,graduate,biology,yes,NA,yes,5,32,yes,NA,yes,English,5,14,NA,NA,NA,NA,NA,NA,NA,NA,NA,yes,NA,yes,NA,PP+,NA
1,brazilian-portuguese,L3_v1,mbrola,lab,260,3,test cswl,22,NA,NA,audio/p1.wav,img/01.jpg,img/03.jpg,img/05.jpg,img/04.jpg,1,1,1.367586474,0.25,216,32,female,graduate,biology,yes,NA,yes,5,32,yes,NA,yes,English,5,14,NA,NA,NA,NA,NA,NA,NA,NA,NA,yes,NA,yes,NA,PP+,NA
1,brazilian-portuguese,L3_v1,mbrola,lab,260,3,test cswl,23,NA,NA,audio/p6.wav,img/06.jpg,img/01.jpg,img/02.jpg,img/03.jpg,2,1,1.5343174,0.25,216,32,female,graduate,biology,yes,NA,yes,5,32,yes,NA,yes,English,5,14,NA,NA,NA,NA,NA,NA,NA,NA,NA,yes,NA,yes,NA,PP+,NA
1,brazilian-portuguese,L3_v1,mbrola,lab,260,3,test cswl,24,NA,NA,audio/pp3.wav,img/09.jpg,img/12.jpg,img/07.jpg,img/11.jpg,2,1,1.950930964,0.25,216,32,female,graduate,biology,yes,NA,yes,5,32,yes,NA,yes,English,5,14,NA,NA,NA,NA,NA,NA,NA,NA,NA,yes,NA,yes,NA,PP-,NA
1,brazilian-portuguese,L3_v1,mbrola,lab,260,3,test cswl,25,NA,NA,audio/pp1.wav,img/07.jpg,img/10.jpg,img/12.jpg,img/09.jpg,2,1,2.000830915,0.25,216,32,female,graduate,biology,yes,NA,yes,5,32,yes,NA,yes,English,5,14,NA,NA,NA,NA,NA,NA,NA,NA,NA,yes,NA,yes,NA,PP-,NA
1,brazilian-portuguese,L3_v1,mbrola,lab,260,3,test cswl,26,NA,NA,audio/pp4.wav,img/10.jpg,img/11.jpg,img/12.jpg,img/07.jpg,2,1,2.584412808,0.25,216,32,female,graduate,biology,yes,NA,yes,5,32,yes,NA,yes,English,5,14,NA,NA,NA,NA,NA,NA,NA,NA,NA,yes,NA,yes,NA,PP-,NA
1,brazilian-portuguese,L3_v1,mbrola,lab,260,3,self evaluation cswl,NA,NA,NA,NA,NA,NA,NA,NA,2,NA,11.0524873,NA,216,32,female,graduate,biology,yes,NA,yes,5,32,yes,NA,yes,English,5,14,NA,NA,NA,NA,NA,NA,NA,NA,NA,yes,NA,yes,NA,NA,NA
1,brazilian-portuguese,L3_v1,mbrola,lab,261,4,warm up cswl,NA,NA,NA,audio/bola.wav,img/bola.jpg,img/casa.jpg,img/pato.jpg,img/gato.jpg,2,1,1.767099795,NA,217,27,female,graduate,chemistry,yes,NA,no,NA,NA,yes,NA,yes,Spanish,4,0,NA,NA,NA,NA,NA,NA,NA,NA,NA,yes,NA,yes,NA,NA,NA
1,brazilian-portuguese,L3_v1,mbrola,lab,261,4,warm up cswl,NA,NA,NA,audio/pato.wav,img/pato.jpg,img/bola.jpg,img/gato.jpg,img/casa.jpg,4,1,2.050901779,NA,217,27,female,graduate,chemistry,yes,NA,no,NA,NA,yes,NA,yes,Spanish,4,0,NA,NA,NA,NA,NA,NA,NA,NA,NA,yes,NA,yes,NA,NA,NA
1,brazilian-portuguese,L3_v1,mbrola,lab,261,4,test cswl,3,NA,NA,audio/pp4.wav,img/10.jpg,img/11.jpg,img/12.jpg,img/07.jpg,4,0,6.101321163,0.25,217,27,female,graduate,chemistry,yes,NA,no,NA,NA,yes,NA,yes,Spanish,4,0,NA,NA,NA,NA,NA,NA,NA,NA,NA,yes,NA,yes,NA,PP-,NA
1,brazilian-portuguese,L3_v1,mbrola,lab,261,4,test cswl,4,NA,NA,audio/p6.wav,img/06.jpg,img/01.jpg,img/02.jpg,img/03.jpg,2,1,4.084393173,0.25,217,27,female,graduate,chemistry,yes,NA,no,NA,NA,yes,NA,yes,Spanish,4,0,NA,NA,NA,NA,NA,NA,NA,NA,NA,yes,NA,yes,NA,PP+,NA
1,brazilian-portuguese,L3_v1,mbrola,lab,261,4,test cswl,5,NA,NA,audio/pp5.wav,img/11.jpg,img/09.jpg,img/10.jpg,img/08.jpg,2,1,3.267676795,0.25,217,27,female,graduate,chemistry,yes,NA,no,NA,NA,yes,NA,yes,Spanish,4,0,NA,NA,NA,NA,NA,NA,NA,NA,NA,yes,NA,yes,NA,PP-,NA
1,brazilian-portuguese,L3_v1,mbrola,lab,261,4,test cswl,6,NA,NA,audio/pp6.wav,img/12.jpg,img/09.jpg,img/10.jpg,img/08.jpg,4,1,2.301118209,0.25,217,27,female,graduate,chemistry,yes,NA,no,NA,NA,yes,NA,yes,Spanish,4,0,NA,NA,NA,NA,NA,NA,NA,NA,NA,yes,NA,yes,NA,PP-,NA
1,brazilian-portuguese,L3_v1,mbrola,lab,261,4,test cswl,7,NA,NA,audio/p6.wav,img/06.jpg,img/04.jpg,img/03.jpg,img/02.jpg,2,1,1.867421362,0.25,217,27,female,graduate,chemistry,yes,NA,no,NA,NA,yes,NA,yes,Spanish,4,0,NA,NA,NA,NA,NA,NA,NA,NA,NA,yes,NA,yes,NA,PP+,NA
1,brazilian-portuguese,L3_v1,mbrola,lab,261,4,test cswl,8,NA,NA,audio/pp3.wav,img/09.jpg,img/12.jpg,img/08.jpg,img/07.jpg,4,1,7.335253094,0.25,217,27,female,graduate,chemistry,yes,NA,no,NA,NA,yes,NA,yes,Spanish,4,0,NA,NA,NA,NA,NA,NA,NA,NA,NA,yes,NA,yes,NA,PP-,NA
1,brazilian-portuguese,L3_v1,mbrola,lab,261,4,test cswl,9,NA,NA,audio/pp5.wav,img/11.jpg,img/07.jpg,img/09.jpg,img/08.jpg,3,1,1.784086244,0.25,217,27,female,graduate,chemistry,yes,NA,no,NA,NA,yes,NA,yes,Spanish,4,0,NA,NA,NA,NA,NA,NA,NA,NA,NA,yes,NA,yes,NA,PP-,NA
1,brazilian-portuguese,L3_v1,mbrola,lab,261,4,test cswl,10,NA,NA,audio/pp2.wav,img/08.jpg,img/12.jpg,img/11.jpg,img/10.jpg,4,0,6.635088786,0.25,217,27,female,graduate,chemistry,yes,NA,no,NA,NA,yes,NA,yes,Spanish,4,0,NA,NA,NA,NA,NA,NA,NA,NA,NA,yes,NA,yes,NA,PP-,NA
1,brazilian-portuguese,L3_v1,mbrola,lab,261,4,test cswl,11,NA,NA,audio/pp1.wav,img/07.jpg,img/10.jpg,img/12.jpg,img/09.jpg,2,1,3.934265814,0.25,217,27,female,graduate,chemistry,yes,NA,no,NA,NA,yes,NA,yes,Spanish,4,0,NA,NA,NA,NA,NA,NA,NA,NA,NA,yes,NA,yes,NA,PP-,NA
1,brazilian-portuguese,L3_v1,mbrola,lab,261,4,test cswl,12,NA,NA,audio/p4.wav,img/04.jpg,img/02.jpg,img/06.jpg,img/01.jpg,1,1,2.000684099,0.25,217,27,female,graduate,chemistry,yes,NA,no,NA,NA,yes,NA,yes,Spanish,4,0,NA,NA,NA,NA,NA,NA,NA,NA,NA,yes,NA,yes,NA,PP+,NA
1,brazilian-portuguese,L3_v1,mbrola,lab,261,4,test cswl,13,NA,NA,audio/p1.wav,img/01.jpg,img/05.jpg,img/06.jpg,img/03.jpg,4,1,3.101012806,0.25,217,27,female,graduate,chemistry,yes,NA,no,NA,NA,yes,NA,yes,Spanish,4,0,NA,NA,NA,NA,NA,NA,NA,NA,NA,yes,NA,yes,NA,PP+,NA
1,brazilian-portuguese,L3_v1,mbrola,lab,261,4,test cswl,14,NA,NA,audio/p2.wav,img/02.jpg,img/03.jpg,img/04.jpg,img/05.jpg,3,1,2.784438334,0.25,217,27,female,graduate,chemistry,yes,NA,no,NA,NA,yes,NA,yes,Spanish,4,0,NA,NA,NA,NA,NA,NA,NA,NA,NA,yes,NA,yes,NA,PP+,NA
1,brazilian-portuguese,L3_v1,mbrola,lab,261,4,test cswl,15,NA,NA,audio/p5.wav,img/05.jpg,img/02.jpg,img/03.jpg,img/04.jpg,2,1,3.900609308,0.25,217,27,female,graduate,chemistry,yes,NA,no,NA,NA,yes,NA,yes,Spanish,4,0,NA,NA,NA,NA,NA,NA,NA,NA,NA,yes,NA,yes,NA,PP+,NA
1,brazilian-portuguese,L3_v1,mbrola,lab,261,4,test cswl,16,NA,NA,audio/pp2.wav,img/08.jpg,img/10.jpg,img/09.jpg,img/11.jpg,1,0,5.701457537,0.25,217,27,female,graduate,chemistry,yes,NA,no,NA,NA,yes,NA,yes,Spanish,4,0,NA,NA,NA,NA,NA,NA,NA,NA,NA,yes,NA,yes,NA,PP-,NA
1,brazilian-portuguese,L3_v1,mbrola,lab,261,4,test cswl,17,NA,NA,audio/p3.wav,img/03.jpg,img/01.jpg,img/05.jpg,img/06.jpg,1,1,1.784130422,0.25,217,27,female,graduate,chemistry,yes,NA,no,NA,NA,yes,NA,yes,Spanish,4,0,NA,NA,NA,NA,NA,NA,NA,NA,NA,yes,NA,yes,NA,PP+,NA
1,brazilian-portuguese,L3_v1,mbrola,lab,261,4,test cswl,18,NA,NA,audio/p4.wav,img/04.jpg,img/01.jpg,img/06.jpg,img/05.jpg,2,1,1.633187321,0.25,217,27,female,graduate,chemistry,yes,NA,no,NA,NA,yes,NA,yes,Spanish,4,0,NA,NA,NA,NA,NA,NA,NA,NA,NA,yes,NA,yes,NA,PP+,NA
1,brazilian-portuguese,L3_v1,mbrola,lab,261,4,test cswl,19,NA,NA,audio/p5.wav,img/05.jpg,img/01.jpg,img/04.jpg,img/02.jpg,4,1,2.967576032,0.25,217,27,female,graduate,chemistry,yes,NA,no,NA,NA,yes,NA,yes,Spanish,4,0,NA,NA,NA,NA,NA,NA,NA,NA,NA,yes,NA,yes,NA,PP+,NA
1,brazilian-portuguese,L3_v1,mbrola,lab,261,4,test cswl,20,NA,NA,audio/p1.wav,img/01.jpg,img/03.jpg,img/05.jpg,img/04.jpg,1,1,5.451465123,0.25,217,27,female,graduate,chemistry,yes,NA,no,NA,NA,yes,NA,yes,Spanish,4,0,NA,NA,NA,NA,NA,NA,NA,NA,NA,yes,NA,yes,NA,PP+,NA
1,brazilian-portuguese,L3_v1,mbrola,lab,261,4,test cswl,21,NA,NA,audio/p2.wav,img/02.jpg,img/05.jpg,img/04.jpg,img/06.jpg,3,1,1.883573326,0.25,217,27,female,graduate,chemistry,yes,NA,no,NA,NA,yes,NA,yes,Spanish,4,0,NA,NA,NA,NA,NA,NA,NA,NA,NA,yes,NA,yes,NA,PP+,NA
1,brazilian-portuguese,L3_v1,mbrola,lab,261,4,test cswl,22,NA,NA,audio/pp6.wav,img/12.jpg,img/07.jpg,img/10.jpg,img/08.jpg,1,1,1.500624748,0.25,217,27,female,graduate,chemistry,yes,NA,no,NA,NA,yes,NA,yes,Spanish,4,0,NA,NA,NA,NA,NA,NA,NA,NA,NA,yes,NA,yes,NA,PP-,NA
1,brazilian-portuguese,L3_v1,mbrola,lab,261,4,test cswl,23,NA,NA,audio/pp4.wav,img/10.jpg,img/08.jpg,img/11.jpg,img/07.jpg,4,0,2.201022445,0.25,217,27,female,graduate,chemistry,yes,NA,no,NA,NA,yes,NA,yes,Spanish,4,0,NA,NA,NA,NA,NA,NA,NA,NA,NA,yes,NA,yes,NA,PP-,NA
1,brazilian-portuguese,L3_v1,mbrola,lab,261,4,test cswl,24,NA,NA,audio/pp3.wav,img/09.jpg,img/12.jpg,img/07.jpg,img/11.jpg,2,1,3.81784271,0.25,217,27,female,graduate,chemistry,yes,NA,no,NA,NA,yes,NA,yes,Spanish,4,0,NA,NA,NA,NA,NA,NA,NA,NA,NA,yes,NA,yes,NA,PP-,NA
1,brazilian-portuguese,L3_v1,mbrola,lab,261,4,test cswl,25,NA,NA,audio/p3.wav,img/03.jpg,img/02.jpg,img/05.jpg,img/01.jpg,3,1,1.717598344,0.25,217,27,female,graduate,chemistry,yes,NA,no,NA,NA,yes,NA,yes,Spanish,4,0,NA,NA,NA,NA,NA,NA,NA,NA,NA,yes,NA,yes,NA,PP+,NA
1,brazilian-portuguese,L3_v1,mbrola,lab,261,4,test cswl,26,NA,NA,audio/pp1.wav,img/07.jpg,img/11.jpg,img/12.jpg,img/09.jpg,3,0,3.21785583,0.25,217,27,female,graduate,chemistry,yes,NA,no,NA,NA,yes,NA,yes,Spanish,4,0,NA,NA,NA,NA,NA,NA,NA,NA,NA,yes,NA,yes,NA,PP-,NA
1,brazilian-portuguese,L3_v1,mbrola,lab,261,4,self evaluation cswl,NA,NA,NA,NA,NA,NA,NA,NA,2,NA,5.651009146,NA,217,27,female,graduate,chemistry,yes,NA,no,NA,NA,yes,NA,yes,Spanish,4,0,NA,NA,NA,NA,NA,NA,NA,NA,NA,yes,NA,yes,NA,NA,NA
1,brazilian-portuguese,L3_v1,mbrola,lab,262,5,warm up cswl,NA,NA,NA,audio/pato.wav,img/pato.jpg,img/bola.jpg,img/gato.jpg,img/casa.jpg,4,1,1.934100702,NA,218,24,female,graduate,chemistry,yes,NA,no,NA,NA,yes,NA,no,NA,NA,NA,NA,NA,NA,NA,NA,NA,NA,NA,NA,yes,NA,yes,NA,NA,NA
1,brazilian-portuguese,L3_v1,mbrola,lab,262,5,warm up cswl,NA,NA,NA,audio/bola.wav,img/bola.jpg,img/casa.jpg,img/pato.jpg,img/gato.jpg,2,1,1.400891337,NA,218,24,female,graduate,chemistry,yes,NA,no,NA,NA,yes,NA,no,NA,NA,NA,NA,NA,NA,NA,NA,NA,NA,NA,NA,yes,NA,yes,NA,NA,NA
1,brazilian-portuguese,L3_v1,mbrola,lab,262,5,test cswl,3,NA,NA,audio/p5.wav,img/05.jpg,img/02.jpg,img/03.jpg,img/04.jpg,4,0,3.884474301,0.25,218,24,female,graduate,chemistry,yes,NA,no,NA,NA,yes,NA,no,NA,NA,NA,NA,NA,NA,NA,NA,NA,NA,NA,NA,yes,NA,yes,NA,PP+,NA
1,brazilian-portuguese,L3_v1,mbrola,lab,262,5,test cswl,4,NA,NA,audio/pp3.wav,img/09.jpg,img/12.jpg,img/08.jpg,img/07.jpg,3,0,5.150796286,0.25,218,24,female,graduate,chemistry,yes,NA,no,NA,NA,yes,NA,no,NA,NA,NA,NA,NA,NA,NA,NA,NA,NA,NA,NA,yes,NA,yes,NA,PP-,NA
1,brazilian-portuguese,L3_v1,mbrola,lab,262,5,test cswl,5,NA,NA,audio/p3.wav,img/03.jpg,img/02.jpg,img/05.jpg,img/01.jpg,3,1,1.267331845,0.25,218,24,female,graduate,chemistry,yes,NA,no,NA,NA,yes,NA,no,NA,NA,NA,NA,NA,NA,NA,NA,NA,NA,NA,NA,yes,NA,yes,NA,PP+,NA
1,brazilian-portuguese,L3_v1,mbrola,lab,262,5,test cswl,6,NA,NA,audio/p4.wav,img/04.jpg,img/01.jpg,img/06.jpg,img/05.jpg,2,1,5.017698661,0.25,218,24,female,graduate,chemistry,yes,NA,no,NA,NA,yes,NA,no,NA,NA,NA,NA,NA,NA,NA,NA,NA,NA,NA,NA,yes,NA,yes,NA,PP+,NA
1,brazilian-portuguese,L3_v1,mbrola,lab,262,5,test cswl,7,NA,NA,audio/pp4.wav,img/10.jpg,img/11.jpg,img/12.jpg,img/07.jpg,3,0,7.218543945,0.25,218,24,female,graduate,chemistry,yes,NA,no,NA,NA,yes,NA,no,NA,NA,NA,NA,NA,NA,NA,NA,NA,NA,NA,NA,yes,NA,yes,NA,PP-,NA
1,brazilian-portuguese,L3_v1,mbrola,lab,262,5,test cswl,8,NA,NA,audio/p4.wav,img/04.jpg,img/02.jpg,img/06.jpg,img/01.jpg,2,0,2.917588616,0.25,218,24,female,graduate,chemistry,yes,NA,no,NA,NA,yes,NA,no,NA,NA,NA,NA,NA,NA,NA,NA,NA,NA,NA,NA,yes,NA,yes,NA,PP+,NA
1,brazilian-portuguese,L3_v1,mbrola,lab,262,5,test cswl,9,NA,NA,audio/pp5.wav,img/11.jpg,img/07.jpg,img/09.jpg,img/08.jpg,3,1,1.467699643,0.25,218,24,female,graduate,chemistry,yes,NA,no,NA,NA,yes,NA,no,NA,NA,NA,NA,NA,NA,NA,NA,NA,NA,NA,NA,yes,NA,yes,NA,PP-,NA
1,brazilian-portuguese,L3_v1,mbrola,lab,262,5,test cswl,10,NA,NA,audio/pp1.wav,img/07.jpg,img/10.jpg,img/12.jpg,img/09.jpg,1,0,6.651591501,0.25,218,24,female,graduate,chemistry,yes,NA,no,NA,NA,yes,NA,no,NA,NA,NA,NA,NA,NA,NA,NA,NA,NA,NA,NA,yes,NA,yes,NA,PP-,NA
1,brazilian-portuguese,L3_v1,mbrola,lab,262,5,test cswl,11,NA,NA,audio/p2.wav,img/02.jpg,img/03.jpg,img/04.jpg,img/05.jpg,3,1,6.15198643,0.25,218,24,female,graduate,chemistry,yes,NA,no,NA,NA,yes,NA,no,NA,NA,NA,NA,NA,NA,NA,NA,NA,NA,NA,NA,yes,NA,yes,NA,PP+,NA
1,brazilian-portuguese,L3_v1,mbrola,lab,262,5,test cswl,12,NA,NA,audio/pp2.wav,img/08.jpg,img/12.jpg,img/11.jpg,img/10.jpg,3,1,4.534587827,0.25,218,24,female,graduate,chemistry,yes,NA,no,NA,NA,yes,NA,no,NA,NA,NA,NA,NA,NA,NA,NA,NA,NA,NA,NA,yes,NA,yes,NA,PP-,NA
1,brazilian-portuguese,L3_v1,mbrola,lab,262,5,test cswl,13,NA,NA,audio/pp3.wav,img/09.jpg,img/12.jpg,img/07.jpg,img/11.jpg,2,1,5.384855398,0.25,218,24,female,graduate,chemistry,yes,NA,no,NA,NA,yes,NA,no,NA,NA,NA,NA,NA,NA,NA,NA,NA,NA,NA,NA,yes,NA,yes,NA,PP-,NA
1,brazilian-portuguese,L3_v1,mbrola,lab,262,5,test cswl,14,NA,NA,audio/p3.wav,img/03.jpg,img/01.jpg,img/05.jpg,img/06.jpg,1,1,3.083483719,0.25,218,24,female,graduate,chemistry,yes,NA,no,NA,NA,yes,NA,no,NA,NA,NA,NA,NA,NA,NA,NA,NA,NA,NA,NA,yes,NA,yes,NA,PP+,NA
1,brazilian-portuguese,L3_v1,mbrola,lab,262,5,test cswl,15,NA,NA,audio/pp1.wav,img/07.jpg,img/11.jpg,img/12.jpg,img/09.jpg,3,0,5.568331798,0.25,218,24,female,graduate,chemistry,yes,NA,no,NA,NA,yes,NA,no,NA,NA,NA,NA,NA,NA,NA,NA,NA,NA,NA,NA,yes,NA,yes,NA,PP-,NA
1,brazilian-portuguese,L3_v1,mbrola,lab,262,5,test cswl,16,NA,NA,audio/pp5.wav,img/11.jpg,img/09.jpg,img/10.jpg,img/08.jpg,2,1,1.833761286,0.25,218,24,female,graduate,chemistry,yes,NA,no,NA,NA,yes,NA,no,NA,NA,NA,NA,NA,NA,NA,NA,NA,NA,NA,NA,yes,NA,yes,NA,PP-,NA
1,brazilian-portuguese,L3_v1,mbrola,lab,262,5,test cswl,17,NA,NA,audio/p2.wav,img/02.jpg,img/05.jpg,img/04.jpg,img/06.jpg,3,1,5.134028945,0.25,218,24,female,graduate,chemistry,yes,NA,no,NA,NA,yes,NA,no,NA,NA,NA,NA,NA,NA,NA,NA,NA,NA,NA,NA,yes,NA,yes,NA,PP+,NA
1,brazilian-portuguese,L3_v1,mbrola,lab,262,5,test cswl,18,NA,NA,audio/pp6.wav,img/12.jpg,img/09.jpg,img/10.jpg,img/08.jpg,4,1,3.034217441,0.25,218,24,female,graduate,chemistry,yes,NA,no,NA,NA,yes,NA,no,NA,NA,NA,NA,NA,NA,NA,NA,NA,NA,NA,NA,yes,NA,yes,NA,PP-,NA
1,brazilian-portuguese,L3_v1,mbrola,lab,262,5,test cswl,19,NA,NA,audio/p5.wav,img/05.jpg,img/01.jpg,img/04.jpg,img/02.jpg,4,1,2.23463745,0.25,218,24,female,graduate,chemistry,yes,NA,no,NA,NA,yes,NA,no,NA,NA,NA,NA,NA,NA,NA,NA,NA,NA,NA,NA,yes,NA,yes,NA,PP+,NA
1,brazilian-portuguese,L3_v1,mbrola,lab,262,5,test cswl,20,NA,NA,audio/p1.wav,img/01.jpg,img/03.jpg,img/05.jpg,img/04.jpg,1,1,2.416674253,0.25,218,24,female,graduate,chemistry,yes,NA,no,NA,NA,yes,NA,no,NA,NA,NA,NA,NA,NA,NA,NA,NA,NA,NA,NA,yes,NA,yes,NA,PP+,NA
1,brazilian-portuguese,L3_v1,mbrola,lab,262,5,test cswl,21,NA,NA,audio/pp2.wav,img/08.jpg,img/10.jpg,img/09.jpg,img/11.jpg,3,1,4.501258421,0.25,218,24,female,graduate,chemistry,yes,NA,no,NA,NA,yes,NA,no,NA,NA,NA,NA,NA,NA,NA,NA,NA,NA,NA,NA,yes,NA,yes,NA,PP-,NA
1,brazilian-portuguese,L3_v1,mbrola,lab,262,5,test cswl,22,NA,NA,audio/p6.wav,img/06.jpg,img/01.jpg,img/02.jpg,img/03.jpg,2,1,1.817837801,0.25,218,24,female,graduate,chemistry,yes,NA,no,NA,NA,yes,NA,no,NA,NA,NA,NA,NA,NA,NA,NA,NA,NA,NA,NA,yes,NA,yes,NA,PP+,NA
1,brazilian-portuguese,L3_v1,mbrola,lab,262,5,test cswl,23,NA,NA,audio/p6.wav,img/06.jpg,img/04.jpg,img/03.jpg,img/02.jpg,2,1,1.267739716,0.25,218,24,female,graduate,chemistry,yes,NA,no,NA,NA,yes,NA,no,NA,NA,NA,NA,NA,NA,NA,NA,NA,NA,NA,NA,yes,NA,yes,NA,PP+,NA
1,brazilian-portuguese,L3_v1,mbrola,lab,262,5,test cswl,24,NA,NA,audio/pp6.wav,img/12.jpg,img/07.jpg,img/10.jpg,img/08.jpg,1,1,3.767928033,0.25,218,24,female,graduate,chemistry,yes,NA,no,NA,NA,yes,NA,no,NA,NA,NA,NA,NA,NA,NA,NA,NA,NA,NA,NA,yes,NA,yes,NA,PP-,NA
1,brazilian-portuguese,L3_v1,mbrola,lab,262,5,test cswl,25,NA,NA,audio/pp4.wav,img/10.jpg,img/08.jpg,img/11.jpg,img/07.jpg,2,0,4.768115903,0.25,218,24,female,graduate,chemistry,yes,NA,no,NA,NA,yes,NA,no,NA,NA,NA,NA,NA,NA,NA,NA,NA,NA,NA,NA,yes,NA,yes,NA,PP-,NA
1,brazilian-portuguese,L3_v1,mbrola,lab,262,5,test cswl,26,NA,NA,audio/p1.wav,img/01.jpg,img/05.jpg,img/06.jpg,img/03.jpg,4,1,2.616952355,0.25,218,24,female,graduate,chemistry,yes,NA,no,NA,NA,yes,NA,no,NA,NA,NA,NA,NA,NA,NA,NA,NA,NA,NA,NA,yes,NA,yes,NA,PP+,NA
1,brazilian-portuguese,L3_v1,mbrola,lab,262,5,self evaluation cswl,NA,NA,NA,NA,NA,NA,NA,NA,2,NA,5.635038806,NA,218,24,female,graduate,chemistry,yes,NA,no,NA,NA,yes,NA,no,NA,NA,NA,NA,NA,NA,NA,NA,NA,NA,NA,NA,yes,NA,yes,NA,NA,NA
1,brazilian-portuguese,L3_v1,mbrola,lab,263,6,warm up cswl,NA,NA,NA,audio/pato.wav,img/pato.jpg,img/bola.jpg,img/gato.jpg,img/casa.jpg,4,1,2.051270826,NA,219,26,female,graduate,civil engineering,yes,NA,yes,12,23,yes,NA,yes,English,6,20,NA,NA,NA,NA,NA,NA,NA,NA,NA,yes,NA,yes,NA,NA,NA
1,brazilian-portuguese,L3_v1,mbrola,lab,263,6,warm up cswl,NA,NA,NA,audio/bola.wav,img/bola.jpg,img/casa.jpg,img/pato.jpg,img/gato.jpg,2,1,1.60072319,NA,219,26,female,graduate,civil engineering,yes,NA,yes,12,23,yes,NA,yes,English,6,20,NA,NA,NA,NA,NA,NA,NA,NA,NA,yes,NA,yes,NA,NA,NA
1,brazilian-portuguese,L3_v1,mbrola,lab,263,6,test cswl,3,NA,NA,audio/pp3.wav,img/09.jpg,img/12.jpg,img/08.jpg,img/07.jpg,4,1,4.201179524,0.25,219,26,female,graduate,civil engineering,yes,NA,yes,12,23,yes,NA,yes,English,6,20,NA,NA,NA,NA,NA,NA,NA,NA,NA,yes,NA,yes,NA,PP-,NA
1,brazilian-portuguese,L3_v1,mbrola,lab,263,6,test cswl,4,NA,NA,audio/p5.wav,img/05.jpg,img/02.jpg,img/03.jpg,img/04.jpg,2,1,1.683707111,0.25,219,26,female,graduate,civil engineering,yes,NA,yes,12,23,yes,NA,yes,English,6,20,NA,NA,NA,NA,NA,NA,NA,NA,NA,yes,NA,yes,NA,PP+,NA
1,brazilian-portuguese,L3_v1,mbrola,lab,263,6,test cswl,5,NA,NA,audio/p1.wav,img/01.jpg,img/05.jpg,img/06.jpg,img/03.jpg,4,1,2.050785754,0.25,219,26,female,graduate,civil engineering,yes,NA,yes,12,23,yes,NA,yes,English,6,20,NA,NA,NA,NA,NA,NA,NA,NA,NA,yes,NA,yes,NA,PP+,NA
1,brazilian-portuguese,L3_v1,mbrola,lab,263,6,test cswl,6,NA,NA,audio/p4.wav,img/04.jpg,img/01.jpg,img/06.jpg,img/05.jpg,2,1,1.417576121,0.25,219,26,female,graduate,civil engineering,yes,NA,yes,12,23,yes,NA,yes,English,6,20,NA,NA,NA,NA,NA,NA,NA,NA,NA,yes,NA,yes,NA,PP+,NA
1,brazilian-portuguese,L3_v1,mbrola,lab,263,6,test cswl,7,NA,NA,audio/p2.wav,img/02.jpg,img/03.jpg,img/04.jpg,img/05.jpg,3,1,2.684147558,0.25,219,26,female,graduate,civil engineering,yes,NA,yes,12,23,yes,NA,yes,English,6,20,NA,NA,NA,NA,NA,NA,NA,NA,NA,yes,NA,yes,NA,PP+,NA
1,brazilian-portuguese,L3_v1,mbrola,lab,263,6,test cswl,8,NA,NA,audio/p2.wav,img/02.jpg,img/05.jpg,img/04.jpg,img/06.jpg,3,1,1.884022698,0.25,219,26,female,graduate,civil engineering,yes,NA,yes,12,23,yes,NA,yes,English,6,20,NA,NA,NA,NA,NA,NA,NA,NA,NA,yes,NA,yes,NA,PP+,NA
1,brazilian-portuguese,L3_v1,mbrola,lab,263,6,test cswl,9,NA,NA,audio/p3.wav,img/03.jpg,img/02.jpg,img/05.jpg,img/01.jpg,3,1,3.551425675,0.25,219,26,female,graduate,civil engineering,yes,NA,yes,12,23,yes,NA,yes,English,6,20,NA,NA,NA,NA,NA,NA,NA,NA,NA,yes,NA,yes,NA,PP+,NA
1,brazilian-portuguese,L3_v1,mbrola,lab,263,6,test cswl,10,NA,NA,audio/pp2.wav,img/08.jpg,img/12.jpg,img/11.jpg,img/10.jpg,3,1,2.21760593,0.25,219,26,female,graduate,civil engineering,yes,NA,yes,12,23,yes,NA,yes,English,6,20,NA,NA,NA,NA,NA,NA,NA,NA,NA,yes,NA,yes,NA,PP-,NA
1,brazilian-portuguese,L3_v1,mbrola,lab,263,6,test cswl,11,NA,NA,audio/p1.wav,img/01.jpg,img/03.jpg,img/05.jpg,img/04.jpg,1,1,3.268011035,0.25,219,26,female,graduate,civil engineering,yes,NA,yes,12,23,yes,NA,yes,English,6,20,NA,NA,NA,NA,NA,NA,NA,NA,NA,yes,NA,yes,NA,PP+,NA
1,brazilian-portuguese,L3_v1,mbrola,lab,263,6,test cswl,12,NA,NA,audio/pp6.wav,img/12.jpg,img/07.jpg,img/10.jpg,img/08.jpg,1,1,2.467660819,0.25,219,26,female,graduate,civil engineering,yes,NA,yes,12,23,yes,NA,yes,English,6,20,NA,NA,NA,NA,NA,NA,NA,NA,NA,yes,NA,yes,NA,PP-,NA
1,brazilian-portuguese,L3_v1,mbrola,lab,263,6,test cswl,13,NA,NA,audio/pp5.wav,img/11.jpg,img/07.jpg,img/09.jpg,img/08.jpg,3,1,2.68441977,0.25,219,26,female,graduate,civil engineering,yes,NA,yes,12,23,yes,NA,yes,English,6,20,NA,NA,NA,NA,NA,NA,NA,NA,NA,yes,NA,yes,NA,PP-,NA
1,brazilian-portuguese,L3_v1,mbrola,lab,263,6,test cswl,14,NA,NA,audio/pp4.wav,img/10.jpg,img/08.jpg,img/11.jpg,img/07.jpg,1,1,1.73392613,0.25,219,26,female,graduate,civil engineering,yes,NA,yes,12,23,yes,NA,yes,English,6,20,NA,NA,NA,NA,NA,NA,NA,NA,NA,yes,NA,yes,NA,PP-,NA
1,brazilian-portuguese,L3_v1,mbrola,lab,263,6,test cswl,15,NA,NA,audio/p4.wav,img/04.jpg,img/02.jpg,img/06.jpg,img/01.jpg,1,1,2.850831629,0.25,219,26,female,graduate,civil engineering,yes,NA,yes,12,23,yes,NA,yes,English,6,20,NA,NA,NA,NA,NA,NA,NA,NA,NA,yes,NA,yes,NA,PP+,NA
1,brazilian-portuguese,L3_v1,mbrola,lab,263,6,test cswl,16,NA,NA,audio/pp2.wav,img/08.jpg,img/10.jpg,img/09.jpg,img/11.jpg,3,1,3.733664182,0.25,219,26,female,graduate,civil engineering,yes,NA,yes,12,23,yes,NA,yes,English,6,20,NA,NA,NA,NA,NA,NA,NA,NA,NA,yes,NA,yes,NA,PP-,NA
1,brazilian-portuguese,L3_v1,mbrola,lab,263,6,test cswl,17,NA,NA,audio/p6.wav,img/06.jpg,img/01.jpg,img/02.jpg,img/03.jpg,2,1,1.433931574,0.25,219,26,female,graduate,civil engineering,yes,NA,yes,12,23,yes,NA,yes,English,6,20,NA,NA,NA,NA,NA,NA,NA,NA,NA,yes,NA,yes,NA,PP+,NA
1,brazilian-portuguese,L3_v1,mbrola,lab,263,6,test cswl,18,NA,NA,audio/pp3.wav,img/09.jpg,img/12.jpg,img/07.jpg,img/11.jpg,2,1,5.267693306,0.25,219,26,female,graduate,civil engineering,yes,NA,yes,12,23,yes,NA,yes,English,6,20,NA,NA,NA,NA,NA,NA,NA,NA,NA,yes,NA,yes,NA,PP-,NA
1,brazilian-portuguese,L3_v1,mbrola,lab,263,6,test cswl,19,NA,NA,audio/p6.wav,img/06.jpg,img/04.jpg,img/03.jpg,img/02.jpg,2,1,1.517596024,0.25,219,26,female,graduate,civil engineering,yes,NA,yes,12,23,yes,NA,yes,English,6,20,NA,NA,NA,NA,NA,NA,NA,NA,NA,yes,NA,yes,NA,PP+,NA
1,brazilian-portuguese,L3_v1,mbrola,lab,263,6,test cswl,20,NA,NA,audio/p3.wav,img/03.jpg,img/01.jpg,img/05.jpg,img/06.jpg,1,1,3.584595324,0.25,219,26,female,graduate,civil engineering,yes,NA,yes,12,23,yes,NA,yes,English,6,20,NA,NA,NA,NA,NA,NA,NA,NA,NA,yes,NA,yes,NA,PP+,NA
1,brazilian-portuguese,L3_v1,mbrola,lab,263,6,test cswl,21,NA,NA,audio/pp1.wav,img/07.jpg,img/11.jpg,img/12.jpg,img/09.jpg,4,1,4.667949631,0.25,219,26,female,graduate,civil engineering,yes,NA,yes,12,23,yes,NA,yes,English,6,20,NA,NA,NA,NA,NA,NA,NA,NA,NA,yes,NA,yes,NA,PP-,NA
1,brazilian-portuguese,L3_v1,mbrola,lab,263,6,test cswl,22,NA,NA,audio/pp4.wav,img/10.jpg,img/11.jpg,img/12.jpg,img/07.jpg,2,1,1.4671338,0.25,219,26,female,graduate,civil engineering,yes,NA,yes,12,23,yes,NA,yes,English,6,20,NA,NA,NA,NA,NA,NA,NA,NA,NA,yes,NA,yes,NA,PP-,NA
1,brazilian-portuguese,L3_v1,mbrola,lab,263,6,test cswl,23,NA,NA,audio/pp6.wav,img/12.jpg,img/09.jpg,img/10.jpg,img/08.jpg,4,1,4.718059765,0.25,219,26,female,graduate,civil engineering,yes,NA,yes,12,23,yes,NA,yes,English,6,20,NA,NA,NA,NA,NA,NA,NA,NA,NA,yes,NA,yes,NA,PP-,NA
1,brazilian-portuguese,L3_v1,mbrola,lab,263,6,test cswl,24,NA,NA,audio/p5.wav,img/05.jpg,img/01.jpg,img/04.jpg,img/02.jpg,4,1,1.584303031,0.25,219,26,female,graduate,civil engineering,yes,NA,yes,12,23,yes,NA,yes,English,6,20,NA,NA,NA,NA,NA,NA,NA,NA,NA,yes,NA,yes,NA,PP+,NA
1,brazilian-portuguese,L3_v1,mbrola,lab,263,6,test cswl,25,NA,NA,audio/pp1.wav,img/07.jpg,img/10.jpg,img/12.jpg,img/09.jpg,2,1,1.867346839,0.25,219,26,female,graduate,civil engineering,yes,NA,yes,12,23,yes,NA,yes,English,6,20,NA,NA,NA,NA,NA,NA,NA,NA,NA,yes,NA,yes,NA,PP-,NA
1,brazilian-portuguese,L3_v1,mbrola,lab,263,6,test cswl,26,NA,NA,audio/pp5.wav,img/11.jpg,img/09.jpg,img/10.jpg,img/08.jpg,2,1,2.033255775,0.25,219,26,female,graduate,civil engineering,yes,NA,yes,12,23,yes,NA,yes,English,6,20,NA,NA,NA,NA,NA,NA,NA,NA,NA,yes,NA,yes,NA,PP-,NA
1,brazilian-portuguese,L3_v1,mbrola,lab,263,6,self evaluation cswl,NA,NA,NA,NA,NA,NA,NA,NA,3,NA,10.83608624,NA,219,26,female,graduate,civil engineering,yes,NA,yes,12,23,yes,NA,yes,English,6,20,NA,NA,NA,NA,NA,NA,NA,NA,NA,yes,NA,yes,NA,NA,NA
1,brazilian-portuguese,L3_v1,mbrola,lab,264,7,warm up cswl,NA,NA,NA,audio/pato.wav,img/pato.jpg,img/bola.jpg,img/gato.jpg,img/casa.jpg,4,1,5.017953469,NA,220,25,female,graduate,special education,yes,NA,no,NA,NA,yes,NA,yes,English,4,7,NA,NA,NA,NA,NA,NA,NA,NA,NA,yes,NA,yes,NA,NA,NA
1,brazilian-portuguese,L3_v1,mbrola,lab,264,7,warm up cswl,NA,NA,NA,audio/bola.wav,img/bola.jpg,img/casa.jpg,img/pato.jpg,img/gato.jpg,2,1,2.900497746,NA,220,25,female,graduate,special education,yes,NA,no,NA,NA,yes,NA,yes,English,4,7,NA,NA,NA,NA,NA,NA,NA,NA,NA,yes,NA,yes,NA,NA,NA
1,brazilian-portuguese,L3_v1,mbrola,lab,264,7,test cswl,3,NA,NA,audio/p2.wav,img/02.jpg,img/03.jpg,img/04.jpg,img/05.jpg,4,0,3.084515446,0.25,220,25,female,graduate,special education,yes,NA,no,NA,NA,yes,NA,yes,English,4,7,NA,NA,NA,NA,NA,NA,NA,NA,NA,yes,NA,yes,NA,PP+,NA
1,brazilian-portuguese,L3_v1,mbrola,lab,264,7,test cswl,4,NA,NA,audio/pp4.wav,img/10.jpg,img/08.jpg,img/11.jpg,img/07.jpg,4,0,3.901011378,0.25,220,25,female,graduate,special education,yes,NA,no,NA,NA,yes,NA,yes,English,4,7,NA,NA,NA,NA,NA,NA,NA,NA,NA,yes,NA,yes,NA,PP-,NA
1,brazilian-portuguese,L3_v1,mbrola,lab,264,7,test cswl,5,NA,NA,audio/p3.wav,img/03.jpg,img/02.jpg,img/05.jpg,img/01.jpg,3,1,3.067703034,0.25,220,25,female,graduate,special education,yes,NA,no,NA,NA,yes,NA,yes,English,4,7,NA,NA,NA,NA,NA,NA,NA,NA,NA,yes,NA,yes,NA,PP+,NA
1,brazilian-portuguese,L3_v1,mbrola,lab,264,7,test cswl,6,NA,NA,audio/p5.wav,img/05.jpg,img/02.jpg,img/03.jpg,img/04.jpg,2,1,3.484376841,0.25,220,25,female,graduate,special education,yes,NA,no,NA,NA,yes,NA,yes,English,4,7,NA,NA,NA,NA,NA,NA,NA,NA,NA,yes,NA,yes,NA,PP+,NA
1,brazilian-portuguese,L3_v1,mbrola,lab,264,7,test cswl,7,NA,NA,audio/p5.wav,img/05.jpg,img/01.jpg,img/04.jpg,img/02.jpg,2,0,5.001298583,0.25,220,25,female,graduate,special education,yes,NA,no,NA,NA,yes,NA,yes,English,4,7,NA,NA,NA,NA,NA,NA,NA,NA,NA,yes,NA,yes,NA,PP+,NA
1,brazilian-portuguese,L3_v1,mbrola,lab,264,7,test cswl,8,NA,NA,audio/pp1.wav,img/07.jpg,img/11.jpg,img/12.jpg,img/09.jpg,2,0,4.117770775,0.25,220,25,female,graduate,special education,yes,NA,no,NA,NA,yes,NA,yes,English,4,7,NA,NA,NA,NA,NA,NA,NA,NA,NA,yes,NA,yes,NA,PP-,NA
1,brazilian-portuguese,L3_v1,mbrola,lab,264,7,test cswl,9,NA,NA,audio/pp2.wav,img/08.jpg,img/12.jpg,img/11.jpg,img/10.jpg,1,0,5.851121244,0.25,220,25,female,graduate,special education,yes,NA,no,NA,NA,yes,NA,yes,English,4,7,NA,NA,NA,NA,NA,NA,NA,NA,NA,yes,NA,yes,NA,PP-,NA
1,brazilian-portuguese,L3_v1,mbrola,lab,264,7,test cswl,10,NA,NA,audio/p2.wav,img/02.jpg,img/05.jpg,img/04.jpg,img/06.jpg,4,0,3.26734434,0.25,220,25,female,graduate,special education,yes,NA,no,NA,NA,yes,NA,yes,English,4,7,NA,NA,NA,NA,NA,NA,NA,NA,NA,yes,NA,yes,NA,PP+,NA
1,brazilian-portuguese,L3_v1,mbrola,lab,264,7,test cswl,11,NA,NA,audio/pp4.wav,img/10.jpg,img/11.jpg,img/12.jpg,img/07.jpg,2,1,4.550565308,0.25,220,25,female,graduate,special education,yes,NA,no,NA,NA,yes,NA,yes,English,4,7,NA,NA,NA,NA,NA,NA,NA,NA,NA,yes,NA,yes,NA,PP-,NA
1,brazilian-portuguese,L3_v1,mbrola,lab,264,7,test cswl,12,NA,NA,audio/p4.wav,img/04.jpg,img/01.jpg,img/06.jpg,img/05.jpg,1,0,3.417838069,0.25,220,25,female,graduate,special education,yes,NA,no,NA,NA,yes,NA,yes,English,4,7,NA,NA,NA,NA,NA,NA,NA,NA,NA,yes,NA,yes,NA,PP+,NA
1,brazilian-portuguese,L3_v1,mbrola,lab,264,7,test cswl,13,NA,NA,audio/pp5.wav,img/11.jpg,img/07.jpg,img/09.jpg,img/08.jpg,3,1,2.117545865,0.25,220,25,female,graduate,special education,yes,NA,no,NA,NA,yes,NA,yes,English,4,7,NA,NA,NA,NA,NA,NA,NA,NA,NA,yes,NA,yes,NA,PP-,NA
1,brazilian-portuguese,L3_v1,mbrola,lab,264,7,test cswl,14,NA,NA,audio/p1.wav,img/01.jpg,img/05.jpg,img/06.jpg,img/03.jpg,4,1,3.633675963,0.25,220,25,female,graduate,special education,yes,NA,no,NA,NA,yes,NA,yes,English,4,7,NA,NA,NA,NA,NA,NA,NA,NA,NA,yes,NA,yes,NA,PP+,NA
1,brazilian-portuguese,L3_v1,mbrola,lab,264,7,test cswl,15,NA,NA,audio/pp6.wav,img/12.jpg,img/07.jpg,img/10.jpg,img/08.jpg,1,1,2.900959166,0.25,220,25,female,graduate,special education,yes,NA,no,NA,NA,yes,NA,yes,English,4,7,NA,NA,NA,NA,NA,NA,NA,NA,NA,yes,NA,yes,NA,PP-,NA
1,brazilian-portuguese,L3_v1,mbrola,lab,264,7,test cswl,16,NA,NA,audio/p3.wav,img/03.jpg,img/01.jpg,img/05.jpg,img/06.jpg,1,1,2.284227258,0.25,220,25,female,graduate,special education,yes,NA,no,NA,NA,yes,NA,yes,English,4,7,NA,NA,NA,NA,NA,NA,NA,NA,NA,yes,NA,yes,NA,PP+,NA
1,brazilian-portuguese,L3_v1,mbrola,lab,264,7,test cswl,17,NA,NA,audio/pp5.wav,img/11.jpg,img/09.jpg,img/10.jpg,img/08.jpg,2,1,1.967675099,0.25,220,25,female,graduate,special education,yes,NA,no,NA,NA,yes,NA,yes,English,4,7,NA,NA,NA,NA,NA,NA,NA,NA,NA,yes,NA,yes,NA,PP-,NA
1,brazilian-portuguese,L3_v1,mbrola,lab,264,7,test cswl,18,NA,NA,audio/p6.wav,img/06.jpg,img/01.jpg,img/02.jpg,img/03.jpg,2,1,5.401405415,0.25,220,25,female,graduate,special education,yes,NA,no,NA,NA,yes,NA,yes,English,4,7,NA,NA,NA,NA,NA,NA,NA,NA,NA,yes,NA,yes,NA,PP+,NA
1,brazilian-portuguese,L3_v1,mbrola,lab,264,7,test cswl,19,NA,NA,audio/p6.wav,img/06.jpg,img/04.jpg,img/03.jpg,img/02.jpg,1,0,6.001530186,0.25,220,25,female,graduate,special education,yes,NA,no,NA,NA,yes,NA,yes,English,4,7,NA,NA,NA,NA,NA,NA,NA,NA,NA,yes,NA,yes,NA,PP+,NA
1,brazilian-portuguese,L3_v1,mbrola,lab,264,7,test cswl,20,NA,NA,audio/pp3.wav,img/09.jpg,img/12.jpg,img/08.jpg,img/07.jpg,2,0,5.618194264,0.25,220,25,female,graduate,special education,yes,NA,no,NA,NA,yes,NA,yes,English,4,7,NA,NA,NA,NA,NA,NA,NA,NA,NA,yes,NA,yes,NA,PP-,NA
1,brazilian-portuguese,L3_v1,mbrola,lab,264,7,test cswl,21,NA,NA,audio/pp2.wav,img/08.jpg,img/10.jpg,img/09.jpg,img/11.jpg,3,1,3.434326504,0.25,220,25,female,graduate,special education,yes,NA,no,NA,NA,yes,NA,yes,English,4,7,NA,NA,NA,NA,NA,NA,NA,NA,NA,yes,NA,yes,NA,PP-,NA
1,brazilian-portuguese,L3_v1,mbrola,lab,264,7,test cswl,22,NA,NA,audio/pp3.wav,img/09.jpg,img/12.jpg,img/07.jpg,img/11.jpg,3,0,5.417651537,0.25,220,25,female,graduate,special education,yes,NA,no,NA,NA,yes,NA,yes,English,4,7,NA,NA,NA,NA,NA,NA,NA,NA,NA,yes,NA,yes,NA,PP-,NA
1,brazilian-portuguese,L3_v1,mbrola,lab,264,7,test cswl,23,NA,NA,audio/p1.wav,img/01.jpg,img/03.jpg,img/05.jpg,img/04.jpg,1,1,2.817576746,0.25,220,25,female,graduate,special education,yes,NA,no,NA,NA,yes,NA,yes,English,4,7,NA,NA,NA,NA,NA,NA,NA,NA,NA,yes,NA,yes,NA,PP+,NA
1,brazilian-portuguese,L3_v1,mbrola,lab,264,7,test cswl,24,NA,NA,audio/pp6.wav,img/12.jpg,img/09.jpg,img/10.jpg,img/08.jpg,4,1,2.284230828,0.25,220,25,female,graduate,special education,yes,NA,no,NA,NA,yes,NA,yes,English,4,7,NA,NA,NA,NA,NA,NA,NA,NA,NA,yes,NA,yes,NA,PP-,NA
1,brazilian-portuguese,L3_v1,mbrola,lab,264,7,test cswl,25,NA,NA,audio/p4.wav,img/04.jpg,img/02.jpg,img/06.jpg,img/01.jpg,3,0,2.6011337389999998,0.25,220,25,female,graduate,special education,yes,NA,no,NA,NA,yes,NA,yes,English,4,7,NA,NA,NA,NA,NA,NA,NA,NA,NA,yes,NA,yes,NA,PP+,NA
1,brazilian-portuguese,L3_v1,mbrola,lab,264,7,test cswl,26,NA,NA,audio/pp1.wav,img/07.jpg,img/10.jpg,img/12.jpg,img/09.jpg,1,0,5.701427638,0.25,220,25,female,graduate,special education,yes,NA,no,NA,NA,yes,NA,yes,English,4,7,NA,NA,NA,NA,NA,NA,NA,NA,NA,yes,NA,yes,NA,PP-,NA
1,brazilian-portuguese,L3_v1,mbrola,lab,264,7,self evaluation cswl,NA,NA,NA,NA,NA,NA,NA,NA,1,NA,3.20152135,NA,220,25,female,graduate,special education,yes,NA,no,NA,NA,yes,NA,yes,English,4,7,NA,NA,NA,NA,NA,NA,NA,NA,NA,yes,NA,yes,NA,NA,NA
1,brazilian-portuguese,L3_v1,mbrola,lab,265,8,warm up cswl,NA,NA,NA,audio/pato.wav,img/pato.jpg,img/bola.jpg,img/gato.jpg,img/casa.jpg,4,1,2.967628243,NA,221,22,female,undergraduate,environmental sciences,yes,NA,no,NA,NA,yes,NA,no,NA,NA,NA,NA,NA,NA,NA,NA,NA,NA,NA,NA,yes,NA,yes,NA,NA,NA
1,brazilian-portuguese,L3_v1,mbrola,lab,265,8,warm up cswl,NA,NA,NA,audio/bola.wav,img/bola.jpg,img/casa.jpg,img/pato.jpg,img/gato.jpg,2,1,2.484439762,NA,221,22,female,undergraduate,environmental sciences,yes,NA,no,NA,NA,yes,NA,no,NA,NA,NA,NA,NA,NA,NA,NA,NA,NA,NA,NA,yes,NA,yes,NA,NA,NA
1,brazilian-portuguese,L3_v1,mbrola,lab,265,8,test cswl,3,NA,NA,audio/p4.wav,img/04.jpg,img/02.jpg,img/06.jpg,img/01.jpg,2,0,3.48463745,0.25,221,22,female,undergraduate,environmental sciences,yes,NA,no,NA,NA,yes,NA,no,NA,NA,NA,NA,NA,NA,NA,NA,NA,NA,NA,NA,yes,NA,yes,NA,PP+,NA
1,brazilian-portuguese,L3_v1,mbrola,lab,265,8,test cswl,4,NA,NA,audio/p1.wav,img/01.jpg,img/05.jpg,img/06.jpg,img/03.jpg,4,1,4.718361429,0.25,221,22,female,undergraduate,environmental sciences,yes,NA,no,NA,NA,yes,NA,no,NA,NA,NA,NA,NA,NA,NA,NA,NA,NA,NA,NA,yes,NA,yes,NA,PP+,NA
1,brazilian-portuguese,L3_v1,mbrola,lab,265,8,test cswl,5,NA,NA,audio/pp2.wav,img/08.jpg,img/10.jpg,img/09.jpg,img/11.jpg,2,0,6.568541535,0.25,221,22,female,undergraduate,environmental sciences,yes,NA,no,NA,NA,yes,NA,no,NA,NA,NA,NA,NA,NA,NA,NA,NA,NA,NA,NA,yes,NA,yes,NA,PP-,NA
1,brazilian-portuguese,L3_v1,mbrola,lab,265,8,test cswl,6,NA,NA,audio/p6.wav,img/06.jpg,img/04.jpg,img/03.jpg,img/02.jpg,2,1,5.318183644,0.25,221,22,female,undergraduate,environmental sciences,yes,NA,no,NA,NA,yes,NA,no,NA,NA,NA,NA,NA,NA,NA,NA,NA,NA,NA,NA,yes,NA,yes,NA,PP+,NA
1,brazilian-portuguese,L3_v1,mbrola,lab,265,8,test cswl,7,NA,NA,audio/pp6.wav,img/12.jpg,img/09.jpg,img/10.jpg,img/08.jpg,4,1,1.567151471,0.25,221,22,female,undergraduate,environmental sciences,yes,NA,no,NA,NA,yes,NA,no,NA,NA,NA,NA,NA,NA,NA,NA,NA,NA,NA,NA,yes,NA,yes,NA,PP-,NA
1,brazilian-portuguese,L3_v1,mbrola,lab,265,8,test cswl,8,NA,NA,audio/pp3.wav,img/09.jpg,img/12.jpg,img/07.jpg,img/11.jpg,3,0,5.668166954,0.25,221,22,female,undergraduate,environmental sciences,yes,NA,no,NA,NA,yes,NA,no,NA,NA,NA,NA,NA,NA,NA,NA,NA,NA,NA,NA,yes,NA,yes,NA,PP-,NA
1,brazilian-portuguese,L3_v1,mbrola,lab,265,8,test cswl,9,NA,NA,audio/pp2.wav,img/08.jpg,img/12.jpg,img/11.jpg,img/10.jpg,3,1,7.818257721,0.25,221,22,female,undergraduate,environmental sciences,yes,NA,no,NA,NA,yes,NA,no,NA,NA,NA,NA,NA,NA,NA,NA,NA,NA,NA,NA,yes,NA,yes,NA,PP-,NA
1,brazilian-portuguese,L3_v1,mbrola,lab,265,8,test cswl,10,NA,NA,audio/pp3.wav,img/09.jpg,img/12.jpg,img/08.jpg,img/07.jpg,4,1,8.518758947,0.25,221,22,female,undergraduate,environmental sciences,yes,NA,no,NA,NA,yes,NA,no,NA,NA,NA,NA,NA,NA,NA,NA,NA,NA,NA,NA,yes,NA,yes,NA,PP-,NA
1,brazilian-portuguese,L3_v1,mbrola,lab,265,8,test cswl,11,NA,NA,audio/pp5.wav,img/11.jpg,img/09.jpg,img/10.jpg,img/08.jpg,3,0,4.617055885,0.25,221,22,female,undergraduate,environmental sciences,yes,NA,no,NA,NA,yes,NA,no,NA,NA,NA,NA,NA,NA,NA,NA,NA,NA,NA,NA,yes,NA,yes,NA,PP-,NA
1,brazilian-portuguese,L3_v1,mbrola,lab,265,8,test cswl,12,NA,NA,audio/p3.wav,img/03.jpg,img/01.jpg,img/05.jpg,img/06.jpg,1,1,2.400805657,0.25,221,22,female,undergraduate,environmental sciences,yes,NA,no,NA,NA,yes,NA,no,NA,NA,NA,NA,NA,NA,NA,NA,NA,NA,NA,NA,yes,NA,yes,NA,PP+,NA
1,brazilian-portuguese,L3_v1,mbrola,lab,265,8,test cswl,13,NA,NA,audio/p6.wav,img/06.jpg,img/01.jpg,img/02.jpg,img/03.jpg,2,1,2.067905185,0.25,221,22,female,undergraduate,environmental sciences,yes,NA,no,NA,NA,yes,NA,no,NA,NA,NA,NA,NA,NA,NA,NA,NA,NA,NA,NA,yes,NA,yes,NA,PP+,NA
1,brazilian-portuguese,L3_v1,mbrola,lab,265,8,test cswl,14,NA,NA,audio/p3.wav,img/03.jpg,img/02.jpg,img/05.jpg,img/01.jpg,3,1,2.266778943,0.25,221,22,female,undergraduate,environmental sciences,yes,NA,no,NA,NA,yes,NA,no,NA,NA,NA,NA,NA,NA,NA,NA,NA,NA,NA,NA,yes,NA,yes,NA,PP+,NA
1,brazilian-portuguese,L3_v1,mbrola,lab,265,8,test cswl,15,NA,NA,audio/pp5.wav,img/11.jpg,img/07.jpg,img/09.jpg,img/08.jpg,4,0,3.567727132,0.25,221,22,female,undergraduate,environmental sciences,yes,NA,no,NA,NA,yes,NA,no,NA,NA,NA,NA,NA,NA,NA,NA,NA,NA,NA,NA,yes,NA,yes,NA,PP-,NA
1,brazilian-portuguese,L3_v1,mbrola,lab,265,8,test cswl,16,NA,NA,audio/p2.wav,img/02.jpg,img/03.jpg,img/04.jpg,img/05.jpg,4,0,5.368002378,0.25,221,22,female,undergraduate,environmental sciences,yes,NA,no,NA,NA,yes,NA,no,NA,NA,NA,NA,NA,NA,NA,NA,NA,NA,NA,NA,yes,NA,yes,NA,PP+,NA
1,brazilian-portuguese,L3_v1,mbrola,lab,265,8,test cswl,17,NA,NA,audio/p5.wav,img/05.jpg,img/02.jpg,img/03.jpg,img/04.jpg,2,1,2.600307733,0.25,221,22,female,undergraduate,environmental sciences,yes,NA,no,NA,NA,yes,NA,no,NA,NA,NA,NA,NA,NA,NA,NA,NA,NA,NA,NA,yes,NA,yes,NA,PP+,NA
1,brazilian-portuguese,L3_v1,mbrola,lab,265,8,test cswl,18,NA,NA,audio/p4.wav,img/04.jpg,img/01.jpg,img/06.jpg,img/05.jpg,2,1,6.968301632,0.25,221,22,female,undergraduate,environmental sciences,yes,NA,no,NA,NA,yes,NA,no,NA,NA,NA,NA,NA,NA,NA,NA,NA,NA,NA,NA,yes,NA,yes,NA,PP+,NA
1,brazilian-portuguese,L3_v1,mbrola,lab,265,8,test cswl,19,NA,NA,audio/p1.wav,img/01.jpg,img/03.jpg,img/05.jpg,img/04.jpg,1,1,2.03422949,0.25,221,22,female,undergraduate,environmental sciences,yes,NA,no,NA,NA,yes,NA,no,NA,NA,NA,NA,NA,NA,NA,NA,NA,NA,NA,NA,yes,NA,yes,NA,PP+,NA
1,brazilian-portuguese,L3_v1,mbrola,lab,265,8,test cswl,20,NA,NA,audio/pp4.wav,img/10.jpg,img/08.jpg,img/11.jpg,img/07.jpg,3,0,5.9684422,0.25,221,22,female,undergraduate,environmental sciences,yes,NA,no,NA,NA,yes,NA,no,NA,NA,NA,NA,NA,NA,NA,NA,NA,NA,NA,NA,yes,NA,yes,NA,PP-,NA
1,brazilian-portuguese,L3_v1,mbrola,lab,265,8,test cswl,21,NA,NA,audio/pp4.wav,img/10.jpg,img/11.jpg,img/12.jpg,img/07.jpg,1,0,1.850394305,0.25,221,22,female,undergraduate,environmental sciences,yes,NA,no,NA,NA,yes,NA,no,NA,NA,NA,NA,NA,NA,NA,NA,NA,NA,NA,NA,yes,NA,yes,NA,PP-,NA
1,brazilian-portuguese,L3_v1,mbrola,lab,265,8,test cswl,22,NA,NA,audio/p2.wav,img/02.jpg,img/05.jpg,img/04.jpg,img/06.jpg,4,0,2.750906331,0.25,221,22,female,undergraduate,environmental sciences,yes,NA,no,NA,NA,yes,NA,no,NA,NA,NA,NA,NA,NA,NA,NA,NA,NA,NA,NA,yes,NA,yes,NA,PP+,NA
1,brazilian-portuguese,L3_v1,mbrola,lab,265,8,test cswl,23,NA,NA,audio/p5.wav,img/05.jpg,img/01.jpg,img/04.jpg,img/02.jpg,4,1,2.601166761,0.25,221,22,female,undergraduate,environmental sciences,yes,NA,no,NA,NA,yes,NA,no,NA,NA,NA,NA,NA,NA,NA,NA,NA,NA,NA,NA,yes,NA,yes,NA,PP+,NA
1,brazilian-portuguese,L3_v1,mbrola,lab,265,8,test cswl,24,NA,NA,audio/pp1.wav,img/07.jpg,img/11.jpg,img/12.jpg,img/09.jpg,3,0,3.484633434,0.25,221,22,female,undergraduate,environmental sciences,yes,NA,no,NA,NA,yes,NA,no,NA,NA,NA,NA,NA,NA,NA,NA,NA,NA,NA,NA,yes,NA,yes,NA,PP-,NA
1,brazilian-portuguese,L3_v1,mbrola,lab,265,8,test cswl,25,NA,NA,audio/pp6.wav,img/12.jpg,img/07.jpg,img/10.jpg,img/08.jpg,1,1,2.167407439,0.25,221,22,female,undergraduate,environmental sciences,yes,NA,no,NA,NA,yes,NA,no,NA,NA,NA,NA,NA,NA,NA,NA,NA,NA,NA,NA,yes,NA,yes,NA,PP-,NA
1,brazilian-portuguese,L3_v1,mbrola,lab,265,8,test cswl,26,NA,NA,audio/pp1.wav,img/07.jpg,img/10.jpg,img/12.jpg,img/09.jpg,4,0,3.367177264,0.25,221,22,female,undergraduate,environmental sciences,yes,NA,no,NA,NA,yes,NA,no,NA,NA,NA,NA,NA,NA,NA,NA,NA,NA,NA,NA,yes,NA,yes,NA,PP-,NA
1,brazilian-portuguese,L3_v1,mbrola,lab,265,8,self evaluation cswl,NA,NA,NA,NA,NA,NA,NA,NA,3,NA,4.768036471,NA,221,22,female,undergraduate,environmental sciences,yes,NA,no,NA,NA,yes,NA,no,NA,NA,NA,NA,NA,NA,NA,NA,NA,NA,NA,NA,yes,NA,yes,NA,NA,NA
1,brazilian-portuguese,L3_v1,mbrola,lab,266,9,warm up cswl,NA,NA,NA,audio/bola.wav,img/bola.jpg,img/casa.jpg,img/pato.jpg,img/gato.jpg,2,1,3.684535348,NA,222,26,male,graduate,chemical engineering,yes,NA,no,NA,NA,yes,NA,yes,English,6,6,Spanish,3,NA,NA,NA,NA,NA,NA,NA,yes,NA,yes,NA,NA,NA
1,brazilian-portuguese,L3_v1,mbrola,lab,266,9,warm up cswl,NA,NA,NA,audio/pato.wav,img/pato.jpg,img/bola.jpg,img/gato.jpg,img/casa.jpg,4,1,1.801168189,NA,222,26,male,graduate,chemical engineering,yes,NA,no,NA,NA,yes,NA,yes,English,6,6,Spanish,3,NA,NA,NA,NA,NA,NA,NA,yes,NA,yes,NA,NA,NA
1,brazilian-portuguese,L3_v1,mbrola,lab,266,9,test cswl,3,NA,NA,audio/p3.wav,img/03.jpg,img/02.jpg,img/05.jpg,img/01.jpg,3,1,1.367575318,0.25,222,26,male,graduate,chemical engineering,yes,NA,no,NA,NA,yes,NA,yes,English,6,6,Spanish,3,NA,NA,NA,NA,NA,NA,NA,yes,NA,yes,NA,PP+,NA
1,brazilian-portuguese,L3_v1,mbrola,lab,266,9,test cswl,4,NA,NA,audio/pp3.wav,img/09.jpg,img/12.jpg,img/07.jpg,img/11.jpg,2,1,2.500929536,0.25,222,26,male,graduate,chemical engineering,yes,NA,no,NA,NA,yes,NA,yes,English,6,6,Spanish,3,NA,NA,NA,NA,NA,NA,NA,yes,NA,yes,NA,PP-,NA
1,brazilian-portuguese,L3_v1,mbrola,lab,266,9,test cswl,5,NA,NA,audio/p3.wav,img/03.jpg,img/01.jpg,img/05.jpg,img/06.jpg,1,1,1.817253662,0.25,222,26,male,graduate,chemical engineering,yes,NA,no,NA,NA,yes,NA,yes,English,6,6,Spanish,3,NA,NA,NA,NA,NA,NA,NA,yes,NA,yes,NA,PP+,NA
1,brazilian-portuguese,L3_v1,mbrola,lab,266,9,test cswl,6,NA,NA,audio/pp2.wav,img/08.jpg,img/12.jpg,img/11.jpg,img/10.jpg,3,1,4.734816396,0.25,222,26,male,graduate,chemical engineering,yes,NA,no,NA,NA,yes,NA,yes,English,6,6,Spanish,3,NA,NA,NA,NA,NA,NA,NA,yes,NA,yes,NA,PP-,NA
1,brazilian-portuguese,L3_v1,mbrola,lab,266,9,test cswl,7,NA,NA,audio/p2.wav,img/02.jpg,img/05.jpg,img/04.jpg,img/06.jpg,3,1,2.484500898,0.25,222,26,male,graduate,chemical engineering,yes,NA,no,NA,NA,yes,NA,yes,English,6,6,Spanish,3,NA,NA,NA,NA,NA,NA,NA,yes,NA,yes,NA,PP+,NA
1,brazilian-portuguese,L3_v1,mbrola,lab,266,9,test cswl,8,NA,NA,audio/pp6.wav,img/12.jpg,img/07.jpg,img/10.jpg,img/08.jpg,1,1,2.800932124,0.25,222,26,male,graduate,chemical engineering,yes,NA,no,NA,NA,yes,NA,yes,English,6,6,Spanish,3,NA,NA,NA,NA,NA,NA,NA,yes,NA,yes,NA,PP-,NA
1,brazilian-portuguese,L3_v1,mbrola,lab,266,9,test cswl,9,NA,NA,audio/pp3.wav,img/09.jpg,img/12.jpg,img/08.jpg,img/07.jpg,3,0,3.701255832,0.25,222,26,male,graduate,chemical engineering,yes,NA,no,NA,NA,yes,NA,yes,English,6,6,Spanish,3,NA,NA,NA,NA,NA,NA,NA,yes,NA,yes,NA,PP-,NA
1,brazilian-portuguese,L3_v1,mbrola,lab,266,9,test cswl,10,NA,NA,audio/p6.wav,img/06.jpg,img/01.jpg,img/02.jpg,img/03.jpg,2,1,1.733921221,0.25,222,26,male,graduate,chemical engineering,yes,NA,no,NA,NA,yes,NA,yes,English,6,6,Spanish,3,NA,NA,NA,NA,NA,NA,NA,yes,NA,yes,NA,PP+,NA
1,brazilian-portuguese,L3_v1,mbrola,lab,266,9,test cswl,11,NA,NA,audio/pp5.wav,img/11.jpg,img/07.jpg,img/09.jpg,img/08.jpg,3,1,1.317168428,0.25,222,26,male,graduate,chemical engineering,yes,NA,no,NA,NA,yes,NA,yes,English,6,6,Spanish,3,NA,NA,NA,NA,NA,NA,NA,yes,NA,yes,NA,PP-,NA
1,brazilian-portuguese,L3_v1,mbrola,lab,266,9,test cswl,12,NA,NA,audio/p1.wav,img/01.jpg,img/03.jpg,img/05.jpg,img/04.jpg,3,0,2.167439123,0.25,222,26,male,graduate,chemical engineering,yes,NA,no,NA,NA,yes,NA,yes,English,6,6,Spanish,3,NA,NA,NA,NA,NA,NA,NA,yes,NA,yes,NA,PP+,NA
1,brazilian-portuguese,L3_v1,mbrola,lab,266,9,test cswl,13,NA,NA,audio/p4.wav,img/04.jpg,img/02.jpg,img/06.jpg,img/01.jpg,1,1,2.350933373,0.25,222,26,male,graduate,chemical engineering,yes,NA,no,NA,NA,yes,NA,yes,English,6,6,Spanish,3,NA,NA,NA,NA,NA,NA,NA,yes,NA,yes,NA,PP+,NA
1,brazilian-portuguese,L3_v1,mbrola,lab,266,9,test cswl,14,NA,NA,audio/pp1.wav,img/07.jpg,img/11.jpg,img/12.jpg,img/09.jpg,3,0,4.485121629,0.25,222,26,male,graduate,chemical engineering,yes,NA,no,NA,NA,yes,NA,yes,English,6,6,Spanish,3,NA,NA,NA,NA,NA,NA,NA,yes,NA,yes,NA,PP-,NA
1,brazilian-portuguese,L3_v1,mbrola,lab,266,9,test cswl,15,NA,NA,audio/pp6.wav,img/12.jpg,img/09.jpg,img/10.jpg,img/08.jpg,4,1,1.367536494,0.25,222,26,male,graduate,chemical engineering,yes,NA,no,NA,NA,yes,NA,yes,English,6,6,Spanish,3,NA,NA,NA,NA,NA,NA,NA,yes,NA,yes,NA,PP-,NA
1,brazilian-portuguese,L3_v1,mbrola,lab,266,9,test cswl,16,NA,NA,audio/p5.wav,img/05.jpg,img/02.jpg,img/03.jpg,img/04.jpg,4,0,2.217472502,0.25,222,26,male,graduate,chemical engineering,yes,NA,no,NA,NA,yes,NA,yes,English,6,6,Spanish,3,NA,NA,NA,NA,NA,NA,NA,yes,NA,yes,NA,PP+,NA
1,brazilian-portuguese,L3_v1,mbrola,lab,266,9,test cswl,17,NA,NA,audio/pp5.wav,img/11.jpg,img/09.jpg,img/10.jpg,img/08.jpg,2,1,1.567441086,0.25,222,26,male,graduate,chemical engineering,yes,NA,no,NA,NA,yes,NA,yes,English,6,6,Spanish,3,NA,NA,NA,NA,NA,NA,NA,yes,NA,yes,NA,PP-,NA
1,brazilian-portuguese,L3_v1,mbrola,lab,266,9,test cswl,18,NA,NA,audio/pp2.wav,img/08.jpg,img/10.jpg,img/09.jpg,img/11.jpg,3,1,2.56791768,0.25,222,26,male,graduate,chemical engineering,yes,NA,no,NA,NA,yes,NA,yes,English,6,6,Spanish,3,NA,NA,NA,NA,NA,NA,NA,yes,NA,yes,NA,PP-,NA
1,brazilian-portuguese,L3_v1,mbrola,lab,266,9,test cswl,19,NA,NA,audio/pp4.wav,img/10.jpg,img/11.jpg,img/12.jpg,img/07.jpg,2,1,4.584690821,0.25,222,26,male,graduate,chemical engineering,yes,NA,no,NA,NA,yes,NA,yes,English,6,6,Spanish,3,NA,NA,NA,NA,NA,NA,NA,yes,NA,yes,NA,PP-,NA
1,brazilian-portuguese,L3_v1,mbrola,lab,266,9,test cswl,20,NA,NA,audio/p4.wav,img/04.jpg,img/01.jpg,img/06.jpg,img/05.jpg,2,1,1.884122658,0.25,222,26,male,graduate,chemical engineering,yes,NA,no,NA,NA,yes,NA,yes,English,6,6,Spanish,3,NA,NA,NA,NA,NA,NA,NA,yes,NA,yes,NA,PP+,NA
1,brazilian-portuguese,L3_v1,mbrola,lab,266,9,test cswl,21,NA,NA,audio/pp4.wav,img/10.jpg,img/08.jpg,img/11.jpg,img/07.jpg,4,0,6.984126495,0.25,222,26,male,graduate,chemical engineering,yes,NA,no,NA,NA,yes,NA,yes,English,6,6,Spanish,3,NA,NA,NA,NA,NA,NA,NA,yes,NA,yes,NA,PP-,NA
1,brazilian-portuguese,L3_v1,mbrola,lab,266,9,test cswl,22,NA,NA,audio/p6.wav,img/06.jpg,img/04.jpg,img/03.jpg,img/02.jpg,2,1,0.984202358,0.25,222,26,male,graduate,chemical engineering,yes,NA,no,NA,NA,yes,NA,yes,English,6,6,Spanish,3,NA,NA,NA,NA,NA,NA,NA,yes,NA,yes,NA,PP+,NA
1,brazilian-portuguese,L3_v1,mbrola,lab,266,9,test cswl,23,NA,NA,audio/p1.wav,img/01.jpg,img/05.jpg,img/06.jpg,img/03.jpg,1,0,1.267328275,0.25,222,26,male,graduate,chemical engineering,yes,NA,no,NA,NA,yes,NA,yes,English,6,6,Spanish,3,NA,NA,NA,NA,NA,NA,NA,yes,NA,yes,NA,PP+,NA
1,brazilian-portuguese,L3_v1,mbrola,lab,266,9,test cswl,24,NA,NA,audio/p2.wav,img/02.jpg,img/03.jpg,img/04.jpg,img/05.jpg,3,1,0.984133635,0.25,222,26,male,graduate,chemical engineering,yes,NA,no,NA,NA,yes,NA,yes,English,6,6,Spanish,3,NA,NA,NA,NA,NA,NA,NA,yes,NA,yes,NA,PP+,NA
1,brazilian-portuguese,L3_v1,mbrola,lab,266,9,test cswl,25,NA,NA,audio/pp1.wav,img/07.jpg,img/10.jpg,img/12.jpg,img/09.jpg,2,1,3.433553602,0.25,222,26,male,graduate,chemical engineering,yes,NA,no,NA,NA,yes,NA,yes,English,6,6,Spanish,3,NA,NA,NA,NA,NA,NA,NA,yes,NA,yes,NA,PP-,NA
1,brazilian-portuguese,L3_v1,mbrola,lab,266,9,test cswl,26,NA,NA,audio/p5.wav,img/05.jpg,img/01.jpg,img/04.jpg,img/02.jpg,2,0,1.650870363,0.25,222,26,male,graduate,chemical engineering,yes,NA,no,NA,NA,yes,NA,yes,English,6,6,Spanish,3,NA,NA,NA,NA,NA,NA,NA,yes,NA,yes,NA,PP+,NA
1,brazilian-portuguese,L3_v1,mbrola,lab,266,9,self evaluation cswl,NA,NA,NA,NA,NA,NA,NA,NA,3,NA,6.318534841,NA,222,26,male,graduate,chemical engineering,yes,NA,no,NA,NA,yes,NA,yes,English,6,6,Spanish,3,NA,NA,NA,NA,NA,NA,NA,yes,NA,yes,NA,NA,NA
1,brazilian-portuguese,L3_v1,mbrola,lab,267,10,warm up cswl,NA,NA,NA,audio/pato.wav,img/pato.jpg,img/bola.jpg,img/gato.jpg,img/casa.jpg,4,1,2.300488107,NA,223,19,female,undergraduate,psychology,yes,NA,no,NA,NA,yes,NA,yes,English,7,6,Spanish,4,12,French,2,18,NA,NA,NA,yes,NA,yes,NA,NA,NA
1,brazilian-portuguese,L3_v1,mbrola,lab,267,10,warm up cswl,NA,NA,NA,audio/bola.wav,img/bola.jpg,img/casa.jpg,img/pato.jpg,img/gato.jpg,2,1,1.784082674,NA,223,19,female,undergraduate,psychology,yes,NA,no,NA,NA,yes,NA,yes,English,7,6,Spanish,4,12,French,2,18,NA,NA,NA,yes,NA,yes,NA,NA,NA
1,brazilian-portuguese,L3_v1,mbrola,lab,267,10,test cswl,3,NA,NA,audio/p3.wav,img/03.jpg,img/01.jpg,img/05.jpg,img/06.jpg,1,1,5.517493387,0.25,223,19,female,undergraduate,psychology,yes,NA,no,NA,NA,yes,NA,yes,English,7,6,Spanish,4,12,French,2,18,NA,NA,NA,yes,NA,yes,NA,PP+,NA
1,brazilian-portuguese,L3_v1,mbrola,lab,267,10,test cswl,4,NA,NA,audio/p1.wav,img/01.jpg,img/05.jpg,img/06.jpg,img/03.jpg,1,0,3.334521247,0.25,223,19,female,undergraduate,psychology,yes,NA,no,NA,NA,yes,NA,yes,English,7,6,Spanish,4,12,French,2,18,NA,NA,NA,yes,NA,yes,NA,PP+,NA
1,brazilian-portuguese,L3_v1,mbrola,lab,267,10,test cswl,5,NA,NA,audio/p2.wav,img/02.jpg,img/05.jpg,img/04.jpg,img/06.jpg,3,1,7.28474803,0.25,223,19,female,undergraduate,psychology,yes,NA,no,NA,NA,yes,NA,yes,English,7,6,Spanish,4,12,French,2,18,NA,NA,NA,yes,NA,yes,NA,PP+,NA
1,brazilian-portuguese,L3_v1,mbrola,lab,267,10,test cswl,6,NA,NA,audio/p4.wav,img/04.jpg,img/02.jpg,img/06.jpg,img/01.jpg,1,1,3.734363453,0.25,223,19,female,undergraduate,psychology,yes,NA,no,NA,NA,yes,NA,yes,English,7,6,Spanish,4,12,French,2,18,NA,NA,NA,yes,NA,yes,NA,PP+,NA
1,brazilian-portuguese,L3_v1,mbrola,lab,267,10,test cswl,7,NA,NA,audio/pp4.wav,img/10.jpg,img/08.jpg,img/11.jpg,img/07.jpg,4,0,6.551920564,0.25,223,19,female,undergraduate,psychology,yes,NA,no,NA,NA,yes,NA,yes,English,7,6,Spanish,4,12,French,2,18,NA,NA,NA,yes,NA,yes,NA,PP-,NA
1,brazilian-portuguese,L3_v1,mbrola,lab,267,10,test cswl,8,NA,NA,audio/p2.wav,img/02.jpg,img/03.jpg,img/04.jpg,img/05.jpg,3,1,10.90153884,0.25,223,19,female,undergraduate,psychology,yes,NA,no,NA,NA,yes,NA,yes,English,7,6,Spanish,4,12,French,2,18,NA,NA,NA,yes,NA,yes,NA,PP+,NA
1,brazilian-portuguese,L3_v1,mbrola,lab,267,10,test cswl,9,NA,NA,audio/p6.wav,img/06.jpg,img/04.jpg,img/03.jpg,img/02.jpg,2,1,1.667339609,0.25,223,19,female,undergraduate,psychology,yes,NA,no,NA,NA,yes,NA,yes,English,7,6,Spanish,4,12,French,2,18,NA,NA,NA,yes,NA,yes,NA,PP+,NA
1,brazilian-portuguese,L3_v1,mbrola,lab,267,10,test cswl,10,NA,NA,audio/pp3.wav,img/09.jpg,img/12.jpg,img/08.jpg,img/07.jpg,2,0,6.167485086,0.25,223,19,female,undergraduate,psychology,yes,NA,no,NA,NA,yes,NA,yes,English,7,6,Spanish,4,12,French,2,18,NA,NA,NA,yes,NA,yes,NA,PP-,NA
1,brazilian-portuguese,L3_v1,mbrola,lab,267,10,test cswl,11,NA,NA,audio/pp5.wav,img/11.jpg,img/09.jpg,img/10.jpg,img/08.jpg,2,1,1.984129619,0.25,223,19,female,undergraduate,psychology,yes,NA,no,NA,NA,yes,NA,yes,English,7,6,Spanish,4,12,French,2,18,NA,NA,NA,yes,NA,yes,NA,PP-,NA
1,brazilian-portuguese,L3_v1,mbrola,lab,267,10,test cswl,12,NA,NA,audio/p4.wav,img/04.jpg,img/01.jpg,img/06.jpg,img/05.jpg,1,0,3.184486707,0.25,223,19,female,undergraduate,psychology,yes,NA,no,NA,NA,yes,NA,yes,English,7,6,Spanish,4,12,French,2,18,NA,NA,NA,yes,NA,yes,NA,PP+,NA
1,brazilian-portuguese,L3_v1,mbrola,lab,267,10,test cswl,13,NA,NA,audio/p3.wav,img/03.jpg,img/02.jpg,img/05.jpg,img/01.jpg,3,1,6.38516911,0.25,223,19,female,undergraduate,psychology,yes,NA,no,NA,NA,yes,NA,yes,English,7,6,Spanish,4,12,French,2,18,NA,NA,NA,yes,NA,yes,NA,PP+,NA
1,brazilian-portuguese,L3_v1,mbrola,lab,267,10,test cswl,14,NA,NA,audio/pp1.wav,img/07.jpg,img/11.jpg,img/12.jpg,img/09.jpg,4,1,4.584521693,0.25,223,19,female,undergraduate,psychology,yes,NA,no,NA,NA,yes,NA,yes,English,7,6,Spanish,4,12,French,2,18,NA,NA,NA,yes,NA,yes,NA,PP-,NA
1,brazilian-portuguese,L3_v1,mbrola,lab,267,10,test cswl,15,NA,NA,audio/p1.wav,img/01.jpg,img/03.jpg,img/05.jpg,img/04.jpg,3,0,4.217305159,0.25,223,19,female,undergraduate,psychology,yes,NA,no,NA,NA,yes,NA,yes,English,7,6,Spanish,4,12,French,2,18,NA,NA,NA,yes,NA,yes,NA,PP+,NA
1,brazilian-portuguese,L3_v1,mbrola,lab,267,10,test cswl,16,NA,NA,audio/pp6.wav,img/12.jpg,img/07.jpg,img/10.jpg,img/08.jpg,1,1,2.150936854,0.25,223,19,female,undergraduate,psychology,yes,NA,no,NA,NA,yes,NA,yes,English,7,6,Spanish,4,12,French,2,18,NA,NA,NA,yes,NA,yes,NA,PP-,NA
1,brazilian-portuguese,L3_v1,mbrola,lab,267,10,test cswl,17,NA,NA,audio/pp5.wav,img/11.jpg,img/07.jpg,img/09.jpg,img/08.jpg,3,1,2.067512932,0.25,223,19,female,undergraduate,psychology,yes,NA,no,NA,NA,yes,NA,yes,English,7,6,Spanish,4,12,French,2,18,NA,NA,NA,yes,NA,yes,NA,PP-,NA
1,brazilian-portuguese,L3_v1,mbrola,lab,267,10,test cswl,18,NA,NA,audio/pp2.wav,img/08.jpg,img/10.jpg,img/09.jpg,img/11.jpg,1,0,6.234531243,0.25,223,19,female,undergraduate,psychology,yes,NA,no,NA,NA,yes,NA,yes,English,7,6,Spanish,4,12,French,2,18,NA,NA,NA,yes,NA,yes,NA,PP-,NA
1,brazilian-portuguese,L3_v1,mbrola,lab,267,10,test cswl,19,NA,NA,audio/pp2.wav,img/08.jpg,img/12.jpg,img/11.jpg,img/10.jpg,4,0,8.61869674,0.25,223,19,female,undergraduate,psychology,yes,NA,no,NA,NA,yes,NA,yes,English,7,6,Spanish,4,12,French,2,18,NA,NA,NA,yes,NA,yes,NA,PP-,NA
1,brazilian-portuguese,L3_v1,mbrola,lab,267,10,test cswl,20,NA,NA,audio/pp3.wav,img/09.jpg,img/12.jpg,img/07.jpg,img/11.jpg,2,1,5.500722923,0.25,223,19,female,undergraduate,psychology,yes,NA,no,NA,NA,yes,NA,yes,English,7,6,Spanish,4,12,French,2,18,NA,NA,NA,yes,NA,yes,NA,PP-,NA
1,brazilian-portuguese,L3_v1,mbrola,lab,267,10,test cswl,21,NA,NA,audio/pp6.wav,img/12.jpg,img/09.jpg,img/10.jpg,img/08.jpg,1,0,5.018163206,0.25,223,19,female,undergraduate,psychology,yes,NA,no,NA,NA,yes,NA,yes,English,7,6,Spanish,4,12,French,2,18,NA,NA,NA,yes,NA,yes,NA,PP-,NA
1,brazilian-portuguese,L3_v1,mbrola,lab,267,10,test cswl,22,NA,NA,audio/pp4.wav,img/10.jpg,img/11.jpg,img/12.jpg,img/07.jpg,4,0,3.750653308,0.25,223,19,female,undergraduate,psychology,yes,NA,no,NA,NA,yes,NA,yes,English,7,6,Spanish,4,12,French,2,18,NA,NA,NA,yes,NA,yes,NA,PP-,NA
1,brazilian-portuguese,L3_v1,mbrola,lab,267,10,test cswl,23,NA,NA,audio/p5.wav,img/05.jpg,img/02.jpg,img/03.jpg,img/04.jpg,4,0,3.117591829,0.25,223,19,female,undergraduate,psychology,yes,NA,no,NA,NA,yes,NA,yes,English,7,6,Spanish,4,12,French,2,18,NA,NA,NA,yes,NA,yes,NA,PP+,NA
1,brazilian-portuguese,L3_v1,mbrola,lab,267,10,test cswl,24,NA,NA,audio/p5.wav,img/05.jpg,img/01.jpg,img/04.jpg,img/02.jpg,4,1,1.717394855,0.25,223,19,female,undergraduate,psychology,yes,NA,no,NA,NA,yes,NA,yes,English,7,6,Spanish,4,12,French,2,18,NA,NA,NA,yes,NA,yes,NA,PP+,NA
1,brazilian-portuguese,L3_v1,mbrola,lab,267,10,test cswl,25,NA,NA,audio/p6.wav,img/06.jpg,img/01.jpg,img/02.jpg,img/03.jpg,2,1,1.634123104,0.25,223,19,female,undergraduate,psychology,yes,NA,no,NA,NA,yes,NA,yes,English,7,6,Spanish,4,12,French,2,18,NA,NA,NA,yes,NA,yes,NA,PP+,NA
1,brazilian-portuguese,L3_v1,mbrola,lab,267,10,test cswl,26,NA,NA,audio/pp1.wav,img/07.jpg,img/10.jpg,img/12.jpg,img/09.jpg,2,1,2.000163773,0.25,223,19,female,undergraduate,psychology,yes,NA,no,NA,NA,yes,NA,yes,English,7,6,Spanish,4,12,French,2,18,NA,NA,NA,yes,NA,yes,NA,PP-,NA
1,brazilian-portuguese,L3_v1,mbrola,lab,267,10,self evaluation cswl,NA,NA,NA,NA,NA,NA,NA,NA,1,NA,14.11992615,NA,223,19,female,undergraduate,psychology,yes,NA,no,NA,NA,yes,NA,yes,English,7,6,Spanish,4,12,French,2,18,NA,NA,NA,yes,NA,yes,NA,NA,NA
1,brazilian-portuguese,L3_v1,mbrola,lab,268,11,warm up cswl,NA,NA,NA,audio/bola.wav,img/bola.jpg,img/casa.jpg,img/pato.jpg,img/gato.jpg,2,1,3.567725347,NA,229,20,male,undergraduate,physics,yes,NA,no,NA,NA,yes,NA,yes,Spanish,4,14,NA,NA,NA,NA,NA,NA,NA,NA,NA,yes,NA,yes,NA,NA,NA
1,brazilian-portuguese,L3_v1,mbrola,lab,268,11,warm up cswl,NA,NA,NA,audio/pato.wav,img/pato.jpg,img/bola.jpg,img/gato.jpg,img/casa.jpg,4,1,2.017459918,NA,229,20,male,undergraduate,physics,yes,NA,no,NA,NA,yes,NA,yes,Spanish,4,14,NA,NA,NA,NA,NA,NA,NA,NA,NA,yes,NA,yes,NA,NA,NA
1,brazilian-portuguese,L3_v1,mbrola,lab,268,11,test cswl,3,NA,NA,audio/p1.wav,img/07.jpg,img/11.jpg,img/12.jpg,img/09.jpg,1,0,8.668681925,0.25,229,20,male,undergraduate,physics,yes,NA,no,NA,NA,yes,NA,yes,Spanish,4,14,NA,NA,NA,NA,NA,NA,NA,NA,NA,yes,NA,yes,NA,PP+,NA
1,brazilian-portuguese,L3_v1,mbrola,lab,268,11,test cswl,4,NA,NA,audio/p1.wav,img/07.jpg,img/10.jpg,img/12.jpg,img/09.jpg,4,0,6.251506089,0.25,229,20,male,undergraduate,physics,yes,NA,no,NA,NA,yes,NA,yes,Spanish,4,14,NA,NA,NA,NA,NA,NA,NA,NA,NA,yes,NA,yes,NA,PP+,NA
1,brazilian-portuguese,L3_v1,mbrola,lab,268,11,test cswl,5,NA,NA,audio/pp4.wav,img/04.jpg,img/01.jpg,img/06.jpg,img/05.jpg,4,0,3.384028499,0.25,229,20,male,undergraduate,physics,yes,NA,no,NA,NA,yes,NA,yes,Spanish,4,14,NA,NA,NA,NA,NA,NA,NA,NA,NA,yes,NA,yes,NA,PP-,NA
1,brazilian-portuguese,L3_v1,mbrola,lab,268,11,test cswl,6,NA,NA,audio/p3.wav,img/09.jpg,img/12.jpg,img/08.jpg,img/07.jpg,3,0,4.217008404,0.25,229,20,male,undergraduate,physics,yes,NA,no,NA,NA,yes,NA,yes,Spanish,4,14,NA,NA,NA,NA,NA,NA,NA,NA,NA,yes,NA,yes,NA,PP+,NA
1,brazilian-portuguese,L3_v1,mbrola,lab,268,11,test cswl,7,NA,NA,audio/pp5.wav,img/05.jpg,img/01.jpg,img/04.jpg,img/02.jpg,3,0,2.917837623,0.25,229,20,male,undergraduate,physics,yes,NA,no,NA,NA,yes,NA,yes,Spanish,4,14,NA,NA,NA,NA,NA,NA,NA,NA,NA,yes,NA,yes,NA,PP-,NA
1,brazilian-portuguese,L3_v1,mbrola,lab,268,11,test cswl,8,NA,NA,audio/pp6.wav,img/06.jpg,img/01.jpg,img/02.jpg,img/03.jpg,2,1,2.084049116,0.25,229,20,male,undergraduate,physics,yes,NA,no,NA,NA,yes,NA,yes,Spanish,4,14,NA,NA,NA,NA,NA,NA,NA,NA,NA,yes,NA,yes,NA,PP-,NA
1,brazilian-portuguese,L3_v1,mbrola,lab,268,11,test cswl,9,NA,NA,audio/p6.wav,img/12.jpg,img/09.jpg,img/10.jpg,img/08.jpg,4,1,2.750609575,0.25,229,20,male,undergraduate,physics,yes,NA,no,NA,NA,yes,NA,yes,Spanish,4,14,NA,NA,NA,NA,NA,NA,NA,NA,NA,yes,NA,yes,NA,PP+,NA
1,brazilian-portuguese,L3_v1,mbrola,lab,268,11,test cswl,10,NA,NA,audio/pp2.wav,img/02.jpg,img/03.jpg,img/04.jpg,img/05.jpg,3,1,4.367900633,0.25,229,20,male,undergraduate,physics,yes,NA,no,NA,NA,yes,NA,yes,Spanish,4,14,NA,NA,NA,NA,NA,NA,NA,NA,NA,yes,NA,yes,NA,PP-,NA
1,brazilian-portuguese,L3_v1,mbrola,lab,268,11,test cswl,11,NA,NA,audio/pp4.wav,img/04.jpg,img/02.jpg,img/06.jpg,img/01.jpg,3,0,4.434528655,0.25,229,20,male,undergraduate,physics,yes,NA,no,NA,NA,yes,NA,yes,Spanish,4,14,NA,NA,NA,NA,NA,NA,NA,NA,NA,yes,NA,yes,NA,PP-,NA
1,brazilian-portuguese,L3_v1,mbrola,lab,268,11,test cswl,12,NA,NA,audio/p4.wav,img/10.jpg,img/08.jpg,img/11.jpg,img/07.jpg,1,1,1.699891205,0.25,229,20,male,undergraduate,physics,yes,NA,no,NA,NA,yes,NA,yes,Spanish,4,14,NA,NA,NA,NA,NA,NA,NA,NA,NA,yes,NA,yes,NA,PP+,NA
1,brazilian-portuguese,L3_v1,mbrola,lab,268,11,test cswl,13,NA,NA,audio/p5.wav,img/11.jpg,img/07.jpg,img/09.jpg,img/08.jpg,2,0,6.351718771,0.25,229,20,male,undergraduate,physics,yes,NA,no,NA,NA,yes,NA,yes,Spanish,4,14,NA,NA,NA,NA,NA,NA,NA,NA,NA,yes,NA,yes,NA,PP+,NA
1,brazilian-portuguese,L3_v1,mbrola,lab,268,11,test cswl,14,NA,NA,audio/p3.wav,img/09.jpg,img/12.jpg,img/07.jpg,img/11.jpg,3,0,1.950641795,0.25,229,20,male,undergraduate,physics,yes,NA,no,NA,NA,yes,NA,yes,Spanish,4,14,NA,NA,NA,NA,NA,NA,NA,NA,NA,yes,NA,yes,NA,PP+,NA
1,brazilian-portuguese,L3_v1,mbrola,lab,268,11,test cswl,15,NA,NA,audio/pp5.wav,img/05.jpg,img/02.jpg,img/03.jpg,img/04.jpg,3,0,1.64999884,0.25,229,20,male,undergraduate,physics,yes,NA,no,NA,NA,yes,NA,yes,Spanish,4,14,NA,NA,NA,NA,NA,NA,NA,NA,NA,yes,NA,yes,NA,PP-,NA
1,brazilian-portuguese,L3_v1,mbrola,lab,268,11,test cswl,16,NA,NA,audio/pp2.wav,img/02.jpg,img/05.jpg,img/04.jpg,img/06.jpg,1,0,5.951531614,0.25,229,20,male,undergraduate,physics,yes,NA,no,NA,NA,yes,NA,yes,Spanish,4,14,NA,NA,NA,NA,NA,NA,NA,NA,NA,yes,NA,yes,NA,PP-,NA
1,brazilian-portuguese,L3_v1,mbrola,lab,268,11,test cswl,17,NA,NA,audio/p4.wav,img/10.jpg,img/11.jpg,img/12.jpg,img/07.jpg,3,0,4.251058948,0.25,229,20,male,undergraduate,physics,yes,NA,no,NA,NA,yes,NA,yes,Spanish,4,14,NA,NA,NA,NA,NA,NA,NA,NA,NA,yes,NA,yes,NA,PP+,NA
1,brazilian-portuguese,L3_v1,mbrola,lab,268,11,test cswl,18,NA,NA,audio/p2.wav,img/08.jpg,img/12.jpg,img/11.jpg,img/10.jpg,3,1,2.250901422,0.25,229,20,male,undergraduate,physics,yes,NA,no,NA,NA,yes,NA,yes,Spanish,4,14,NA,NA,NA,NA,NA,NA,NA,NA,NA,yes,NA,yes,NA,PP+,NA
1,brazilian-portuguese,L3_v1,mbrola,lab,268,11,test cswl,19,NA,NA,audio/pp1.wav,img/01.jpg,img/03.jpg,img/05.jpg,img/04.jpg,4,0,3.217605484,0.25,229,20,male,undergraduate,physics,yes,NA,no,NA,NA,yes,NA,yes,Spanish,4,14,NA,NA,NA,NA,NA,NA,NA,NA,NA,yes,NA,yes,NA,PP-,NA
1,brazilian-portuguese,L3_v1,mbrola,lab,268,11,test cswl,20,NA,NA,audio/p5.wav,img/11.jpg,img/09.jpg,img/10.jpg,img/08.jpg,4,0,5.584851471,0.25,229,20,male,undergraduate,physics,yes,NA,no,NA,NA,yes,NA,yes,Spanish,4,14,NA,NA,NA,NA,NA,NA,NA,NA,NA,yes,NA,yes,NA,PP+,NA
1,brazilian-portuguese,L3_v1,mbrola,lab,268,11,test cswl,21,NA,NA,audio/pp1.wav,img/01.jpg,img/05.jpg,img/06.jpg,img/03.jpg,3,0,3.901267524,0.25,229,20,male,undergraduate,physics,yes,NA,no,NA,NA,yes,NA,yes,Spanish,4,14,NA,NA,NA,NA,NA,NA,NA,NA,NA,yes,NA,yes,NA,PP-,NA
1,brazilian-portuguese,L3_v1,mbrola,lab,268,11,test cswl,22,NA,NA,audio/p6.wav,img/12.jpg,img/07.jpg,img/10.jpg,img/08.jpg,2,0,6.635089678,0.25,229,20,male,undergraduate,physics,yes,NA,no,NA,NA,yes,NA,yes,Spanish,4,14,NA,NA,NA,NA,NA,NA,NA,NA,NA,yes,NA,yes,NA,PP+,NA
1,brazilian-portuguese,L3_v1,mbrola,lab,268,11,test cswl,23,NA,NA,audio/p2.wav,img/08.jpg,img/10.jpg,img/09.jpg,img/11.jpg,4,0,1.916651048,0.25,229,20,male,undergraduate,physics,yes,NA,no,NA,NA,yes,NA,yes,Spanish,4,14,NA,NA,NA,NA,NA,NA,NA,NA,NA,yes,NA,yes,NA,PP+,NA
1,brazilian-portuguese,L3_v1,mbrola,lab,268,11,test cswl,24,NA,NA,audio/pp6.wav,img/06.jpg,img/04.jpg,img/03.jpg,img/02.jpg,2,1,5.4348147000000004,0.25,229,20,male,undergraduate,physics,yes,NA,no,NA,NA,yes,NA,yes,Spanish,4,14,NA,NA,NA,NA,NA,NA,NA,NA,NA,yes,NA,yes,NA,PP-,NA
1,brazilian-portuguese,L3_v1,mbrola,lab,268,11,test cswl,25,NA,NA,audio/pp3.wav,img/03.jpg,img/01.jpg,img/05.jpg,img/06.jpg,3,0,8.585000518,0.25,229,20,male,undergraduate,physics,yes,NA,no,NA,NA,yes,NA,yes,Spanish,4,14,NA,NA,NA,NA,NA,NA,NA,NA,NA,yes,NA,yes,NA,PP-,NA
1,brazilian-portuguese,L3_v1,mbrola,lab,268,11,test cswl,26,NA,NA,audio/pp3.wav,img/03.jpg,img/02.jpg,img/05.jpg,img/01.jpg,2,0,1.850770493,0.25,229,20,male,undergraduate,physics,yes,NA,no,NA,NA,yes,NA,yes,Spanish,4,14,NA,NA,NA,NA,NA,NA,NA,NA,NA,yes,NA,yes,NA,PP-,NA
1,brazilian-portuguese,L3_v1,mbrola,lab,268,11,self evaluation cswl,NA,NA,NA,NA,NA,NA,NA,NA,1,NA,2.534182633,NA,229,20,male,undergraduate,physics,yes,NA,no,NA,NA,yes,NA,yes,Spanish,4,14,NA,NA,NA,NA,NA,NA,NA,NA,NA,yes,NA,yes,NA,NA,NA
1,brazilian-portuguese,L3_v1,mbrola,lab,269,12,warm up cswl,NA,NA,NA,audio/pato.wav,img/pato.jpg,img/bola.jpg,img/gato.jpg,img/casa.jpg,4,1,10.88526996,NA,230,33,female,undergraduate,social sciencess,yes,NA,no,NA,NA,yes,NA,no,NA,NA,NA,NA,NA,NA,NA,NA,NA,NA,NA,NA,yes,NA,yes,NA,NA,NA
1,brazilian-portuguese,L3_v1,mbrola,lab,269,12,warm up cswl,NA,NA,NA,audio/bola.wav,img/bola.jpg,img/casa.jpg,img/pato.jpg,img/gato.jpg,2,1,2.634257871,NA,230,33,female,undergraduate,social sciencess,yes,NA,no,NA,NA,yes,NA,no,NA,NA,NA,NA,NA,NA,NA,NA,NA,NA,NA,NA,yes,NA,yes,NA,NA,NA
1,brazilian-portuguese,L3_v1,mbrola,lab,269,12,test cswl,3,NA,NA,audio/pp5.wav,img/05.jpg,img/01.jpg,img/04.jpg,img/02.jpg,4,1,3.917521233,0.25,230,33,female,undergraduate,social sciencess,yes,NA,no,NA,NA,yes,NA,no,NA,NA,NA,NA,NA,NA,NA,NA,NA,NA,NA,NA,yes,NA,yes,NA,PP-,NA
1,brazilian-portuguese,L3_v1,mbrola,lab,269,12,test cswl,4,NA,NA,audio/p5.wav,img/11.jpg,img/09.jpg,img/10.jpg,img/08.jpg,2,1,17.48645948,0.25,230,33,female,undergraduate,social sciencess,yes,NA,no,NA,NA,yes,NA,no,NA,NA,NA,NA,NA,NA,NA,NA,NA,NA,NA,NA,yes,NA,yes,NA,PP+,NA
1,brazilian-portuguese,L3_v1,mbrola,lab,269,12,test cswl,5,NA,NA,audio/pp4.wav,img/04.jpg,img/02.jpg,img/06.jpg,img/01.jpg,1,1,3.184397457,0.25,230,33,female,undergraduate,social sciencess,yes,NA,no,NA,NA,yes,NA,no,NA,NA,NA,NA,NA,NA,NA,NA,NA,NA,NA,NA,yes,NA,yes,NA,PP-,NA
1,brazilian-portuguese,L3_v1,mbrola,lab,269,12,test cswl,6,NA,NA,audio/p6.wav,img/12.jpg,img/09.jpg,img/10.jpg,img/08.jpg,3,0,14.18591292,0.25,230,33,female,undergraduate,social sciencess,yes,NA,no,NA,NA,yes,NA,no,NA,NA,NA,NA,NA,NA,NA,NA,NA,NA,NA,NA,yes,NA,yes,NA,PP+,NA
1,brazilian-portuguese,L3_v1,mbrola,lab,269,12,test cswl,7,NA,NA,audio/p3.wav,img/09.jpg,img/12.jpg,img/08.jpg,img/07.jpg,4,1,2.134242698,0.25,230,33,female,undergraduate,social sciencess,yes,NA,no,NA,NA,yes,NA,no,NA,NA,NA,NA,NA,NA,NA,NA,NA,NA,NA,NA,yes,NA,yes,NA,PP+,NA
1,brazilian-portuguese,L3_v1,mbrola,lab,269,12,test cswl,8,NA,NA,audio/pp1.wav,img/01.jpg,img/03.jpg,img/05.jpg,img/04.jpg,1,1,5.117565947,0.25,230,33,female,undergraduate,social sciencess,yes,NA,no,NA,NA,yes,NA,no,NA,NA,NA,NA,NA,NA,NA,NA,NA,NA,NA,NA,yes,NA,yes,NA,PP-,NA
1,brazilian-portuguese,L3_v1,mbrola,lab,269,12,test cswl,9,NA,NA,audio/pp6.wav,img/06.jpg,img/01.jpg,img/02.jpg,img/03.jpg,2,1,4.751244587,0.25,230,33,female,undergraduate,social sciencess,yes,NA,no,NA,NA,yes,NA,no,NA,NA,NA,NA,NA,NA,NA,NA,NA,NA,NA,NA,yes,NA,yes,NA,PP-,NA
1,brazilian-portuguese,L3_v1,mbrola,lab,269,12,test cswl,10,NA,NA,audio/pp5.wav,img/05.jpg,img/02.jpg,img/03.jpg,img/04.jpg,2,1,1.800742914,0.25,230,33,female,undergraduate,social sciencess,yes,NA,no,NA,NA,yes,NA,no,NA,NA,NA,NA,NA,NA,NA,NA,NA,NA,NA,NA,yes,NA,yes,NA,PP-,NA
1,brazilian-portuguese,L3_v1,mbrola,lab,269,12,test cswl,11,NA,NA,audio/p4.wav,img/10.jpg,img/08.jpg,img/11.jpg,img/07.jpg,4,0,3.08345025,0.25,230,33,female,undergraduate,social sciencess,yes,NA,no,NA,NA,yes,NA,no,NA,NA,NA,NA,NA,NA,NA,NA,NA,NA,NA,NA,yes,NA,yes,NA,PP+,NA
1,brazilian-portuguese,L3_v1,mbrola,lab,269,12,test cswl,12,NA,NA,audio/p4.wav,img/10.jpg,img/11.jpg,img/12.jpg,img/07.jpg,4,0,2.884351583,0.25,230,33,female,undergraduate,social sciencess,yes,NA,no,NA,NA,yes,NA,no,NA,NA,NA,NA,NA,NA,NA,NA,NA,NA,NA,NA,yes,NA,yes,NA,PP+,NA
1,brazilian-portuguese,L3_v1,mbrola,lab,269,12,test cswl,13,NA,NA,audio/p2.wav,img/08.jpg,img/10.jpg,img/09.jpg,img/11.jpg,1,0,14.75268195,0.25,230,33,female,undergraduate,social sciencess,yes,NA,no,NA,NA,yes,NA,no,NA,NA,NA,NA,NA,NA,NA,NA,NA,NA,NA,NA,yes,NA,yes,NA,PP+,NA
1,brazilian-portuguese,L3_v1,mbrola,lab,269,12,test cswl,14,NA,NA,audio/p3.wav,img/09.jpg,img/12.jpg,img/07.jpg,img/11.jpg,2,1,3.850778079,0.25,230,33,female,undergraduate,social sciencess,yes,NA,no,NA,NA,yes,NA,no,NA,NA,NA,NA,NA,NA,NA,NA,NA,NA,NA,NA,yes,NA,yes,NA,PP+,NA
1,brazilian-portuguese,L3_v1,mbrola,lab,269,12,test cswl,15,NA,NA,audio/pp2.wav,img/02.jpg,img/05.jpg,img/04.jpg,img/06.jpg,2,0,4.434193968,0.25,230,33,female,undergraduate,social sciencess,yes,NA,no,NA,NA,yes,NA,no,NA,NA,NA,NA,NA,NA,NA,NA,NA,NA,NA,NA,yes,NA,yes,NA,PP-,NA
1,brazilian-portuguese,L3_v1,mbrola,lab,269,12,test cswl,16,NA,NA,audio/pp6.wav,img/06.jpg,img/04.jpg,img/03.jpg,img/02.jpg,2,1,3.584367291,0.25,230,33,female,undergraduate,social sciencess,yes,NA,no,NA,NA,yes,NA,no,NA,NA,NA,NA,NA,NA,NA,NA,NA,NA,NA,NA,yes,NA,yes,NA,PP-,NA
1,brazilian-portuguese,L3_v1,mbrola,lab,269,12,test cswl,17,NA,NA,audio/p1.wav,img/07.jpg,img/11.jpg,img/12.jpg,img/09.jpg,1,0,11.93520026,0.25,230,33,female,undergraduate,social sciencess,yes,NA,no,NA,NA,yes,NA,no,NA,NA,NA,NA,NA,NA,NA,NA,NA,NA,NA,NA,yes,NA,yes,NA,PP+,NA
1,brazilian-portuguese,L3_v1,mbrola,lab,269,12,test cswl,18,NA,NA,audio/pp3.wav,img/03.jpg,img/02.jpg,img/05.jpg,img/01.jpg,1,0,3.484367916,0.25,230,33,female,undergraduate,social sciencess,yes,NA,no,NA,NA,yes,NA,no,NA,NA,NA,NA,NA,NA,NA,NA,NA,NA,NA,NA,yes,NA,yes,NA,PP-,NA
1,brazilian-portuguese,L3_v1,mbrola,lab,269,12,test cswl,19,NA,NA,audio/pp1.wav,img/01.jpg,img/05.jpg,img/06.jpg,img/03.jpg,4,1,5.8510257470000004,0.25,230,33,female,undergraduate,social sciencess,yes,NA,no,NA,NA,yes,NA,no,NA,NA,NA,NA,NA,NA,NA,NA,NA,NA,NA,NA,yes,NA,yes,NA,PP-,NA
1,brazilian-portuguese,L3_v1,mbrola,lab,269,12,test cswl,20,NA,NA,audio/pp3.wav,img/03.jpg,img/01.jpg,img/05.jpg,img/06.jpg,2,0,8.351913781,0.25,230,33,female,undergraduate,social sciencess,yes,NA,no,NA,NA,yes,NA,no,NA,NA,NA,NA,NA,NA,NA,NA,NA,NA,NA,NA,yes,NA,yes,NA,PP-,NA
1,brazilian-portuguese,L3_v1,mbrola,lab,269,12,test cswl,21,NA,NA,audio/p1.wav,img/07.jpg,img/10.jpg,img/12.jpg,img/09.jpg,3,0,15.83591488,0.25,230,33,female,undergraduate,social sciencess,yes,NA,no,NA,NA,yes,NA,no,NA,NA,NA,NA,NA,NA,NA,NA,NA,NA,NA,NA,yes,NA,yes,NA,PP+,NA
1,brazilian-portuguese,L3_v1,mbrola,lab,269,12,test cswl,22,NA,NA,audio/pp2.wav,img/02.jpg,img/03.jpg,img/04.jpg,img/05.jpg,2,0,11.75218885,0.25,230,33,female,undergraduate,social sciencess,yes,NA,no,NA,NA,yes,NA,no,NA,NA,NA,NA,NA,NA,NA,NA,NA,NA,NA,NA,yes,NA,yes,NA,PP-,NA
1,brazilian-portuguese,L3_v1,mbrola,lab,269,12,test cswl,23,NA,NA,audio/p6.wav,img/12.jpg,img/07.jpg,img/10.jpg,img/08.jpg,4,0,4.801556872,0.25,230,33,female,undergraduate,social sciencess,yes,NA,no,NA,NA,yes,NA,no,NA,NA,NA,NA,NA,NA,NA,NA,NA,NA,NA,NA,yes,NA,yes,NA,PP+,NA
1,brazilian-portuguese,L3_v1,mbrola,lab,269,12,test cswl,24,NA,NA,audio/pp4.wav,img/04.jpg,img/01.jpg,img/06.jpg,img/05.jpg,2,1,4.801430137,0.25,230,33,female,undergraduate,social sciencess,yes,NA,no,NA,NA,yes,NA,no,NA,NA,NA,NA,NA,NA,NA,NA,NA,NA,NA,NA,yes,NA,yes,NA,PP-,NA
1,brazilian-portuguese,L3_v1,mbrola,lab,269,12,test cswl,25,NA,NA,audio/p2.wav,img/08.jpg,img/12.jpg,img/11.jpg,img/10.jpg,4,0,8.168577949,0.25,230,33,female,undergraduate,social sciencess,yes,NA,no,NA,NA,yes,NA,no,NA,NA,NA,NA,NA,NA,NA,NA,NA,NA,NA,NA,yes,NA,yes,NA,PP+,NA
1,brazilian-portuguese,L3_v1,mbrola,lab,269,12,test cswl,26,NA,NA,audio/p5.wav,img/11.jpg,img/07.jpg,img/09.jpg,img/08.jpg,3,1,16.30307635,0.25,230,33,female,undergraduate,social sciencess,yes,NA,no,NA,NA,yes,NA,no,NA,NA,NA,NA,NA,NA,NA,NA,NA,NA,NA,NA,yes,NA,yes,NA,PP+,NA
1,brazilian-portuguese,L3_v1,mbrola,lab,269,12,self evaluation cswl,NA,NA,NA,NA,NA,NA,NA,NA,1,NA,3.167809063,NA,230,33,female,undergraduate,social sciencess,yes,NA,no,NA,NA,yes,NA,no,NA,NA,NA,NA,NA,NA,NA,NA,NA,NA,NA,NA,yes,NA,yes,NA,NA,NA
1,brazilian-portuguese,L3_v1,mbrola,lab,270,21,warm up cswl,NA,NA,NA,audio/bola.wav,img/bola.jpg,img/casa.jpg,img/pato.jpg,img/gato.jpg,2,1,2.300784459,NA,224,17,female,undergraduate,psychology,yes,NA,no,NA,NA,yes,NA,yes,English,6,10,NA,NA,NA,NA,NA,NA,NA,NA,NA,yes,NA,yes,NA,NA,NA
1,brazilian-portuguese,L3_v1,mbrola,lab,270,21,warm up cswl,NA,NA,NA,audio/pato.wav,img/pato.jpg,img/bola.jpg,img/gato.jpg,img/casa.jpg,4,1,1.867363974,NA,224,17,female,undergraduate,psychology,yes,NA,no,NA,NA,yes,NA,yes,English,6,10,NA,NA,NA,NA,NA,NA,NA,NA,NA,yes,NA,yes,NA,NA,NA
1,brazilian-portuguese,L3_v1,mbrola,lab,270,21,test cswl,3,NA,NA,audio/pp6.wav,img/12.jpg,img/09.jpg,img/10.jpg,img/08.jpg,4,1,7.268331528,0.25,224,17,female,undergraduate,psychology,yes,NA,no,NA,NA,yes,NA,yes,English,6,10,NA,NA,NA,NA,NA,NA,NA,NA,NA,yes,NA,yes,NA,PP-,NA
1,brazilian-portuguese,L3_v1,mbrola,lab,270,21,test cswl,4,NA,NA,audio/p5.wav,img/05.jpg,img/01.jpg,img/04.jpg,img/02.jpg,4,1,4.833971245,0.25,224,17,female,undergraduate,psychology,yes,NA,no,NA,NA,yes,NA,yes,English,6,10,NA,NA,NA,NA,NA,NA,NA,NA,NA,yes,NA,yes,NA,PP+,NA
1,brazilian-portuguese,L3_v1,mbrola,lab,270,21,test cswl,5,NA,NA,audio/p2.wav,img/02.jpg,img/05.jpg,img/04.jpg,img/06.jpg,3,1,2.234058799,0.25,224,17,female,undergraduate,psychology,yes,NA,no,NA,NA,yes,NA,yes,English,6,10,NA,NA,NA,NA,NA,NA,NA,NA,NA,yes,NA,yes,NA,PP+,NA
1,brazilian-portuguese,L3_v1,mbrola,lab,270,21,test cswl,6,NA,NA,audio/p1.wav,img/01.jpg,img/03.jpg,img/05.jpg,img/04.jpg,1,1,2.784313673,0.25,224,17,female,undergraduate,psychology,yes,NA,no,NA,NA,yes,NA,yes,English,6,10,NA,NA,NA,NA,NA,NA,NA,NA,NA,yes,NA,yes,NA,PP+,NA
1,brazilian-portuguese,L3_v1,mbrola,lab,270,21,test cswl,7,NA,NA,audio/p1.wav,img/01.jpg,img/05.jpg,img/06.jpg,img/03.jpg,4,1,5.16739115,0.25,224,17,female,undergraduate,psychology,yes,NA,no,NA,NA,yes,NA,yes,English,6,10,NA,NA,NA,NA,NA,NA,NA,NA,NA,yes,NA,yes,NA,PP+,NA
1,brazilian-portuguese,L3_v1,mbrola,lab,270,21,test cswl,8,NA,NA,audio/pp4.wav,img/10.jpg,img/08.jpg,img/11.jpg,img/07.jpg,1,1,10.20219581,0.25,224,17,female,undergraduate,psychology,yes,NA,no,NA,NA,yes,NA,yes,English,6,10,NA,NA,NA,NA,NA,NA,NA,NA,NA,yes,NA,yes,NA,PP-,NA
1,brazilian-portuguese,L3_v1,mbrola,lab,270,21,test cswl,9,NA,NA,audio/p5.wav,img/05.jpg,img/02.jpg,img/03.jpg,img/04.jpg,2,1,7.135103777,0.25,224,17,female,undergraduate,psychology,yes,NA,no,NA,NA,yes,NA,yes,English,6,10,NA,NA,NA,NA,NA,NA,NA,NA,NA,yes,NA,yes,NA,PP+,NA
1,brazilian-portuguese,L3_v1,mbrola,lab,270,21,test cswl,10,NA,NA,audio/pp2.wav,img/08.jpg,img/10.jpg,img/09.jpg,img/11.jpg,3,1,3.634402499,0.25,224,17,female,undergraduate,psychology,yes,NA,no,NA,NA,yes,NA,yes,English,6,10,NA,NA,NA,NA,NA,NA,NA,NA,NA,yes,NA,yes,NA,PP-,NA
1,brazilian-portuguese,L3_v1,mbrola,lab,270,21,test cswl,11,NA,NA,audio/pp3.wav,img/09.jpg,img/12.jpg,img/07.jpg,img/11.jpg,2,1,2.800720423,0.25,224,17,female,undergraduate,psychology,yes,NA,no,NA,NA,yes,NA,yes,English,6,10,NA,NA,NA,NA,NA,NA,NA,NA,NA,yes,NA,yes,NA,PP-,NA
1,brazilian-portuguese,L3_v1,mbrola,lab,270,21,test cswl,12,NA,NA,audio/p3.wav,img/03.jpg,img/02.jpg,img/05.jpg,img/01.jpg,3,1,1.633710814,0.25,224,17,female,undergraduate,psychology,yes,NA,no,NA,NA,yes,NA,yes,English,6,10,NA,NA,NA,NA,NA,NA,NA,NA,NA,yes,NA,yes,NA,PP+,NA
1,brazilian-portuguese,L3_v1,mbrola,lab,270,21,test cswl,13,NA,NA,audio/pp6.wav,img/12.jpg,img/07.jpg,img/10.jpg,img/08.jpg,1,1,2.134093472,0.25,224,17,female,undergraduate,psychology,yes,NA,no,NA,NA,yes,NA,yes,English,6,10,NA,NA,NA,NA,NA,NA,NA,NA,NA,yes,NA,yes,NA,PP-,NA
1,brazilian-portuguese,L3_v1,mbrola,lab,270,21,test cswl,14,NA,NA,audio/p6.wav,img/06.jpg,img/04.jpg,img/03.jpg,img/02.jpg,2,1,2.884338797,0.25,224,17,female,undergraduate,psychology,yes,NA,no,NA,NA,yes,NA,yes,English,6,10,NA,NA,NA,NA,NA,NA,NA,NA,NA,yes,NA,yes,NA,PP+,NA
1,brazilian-portuguese,L3_v1,mbrola,lab,270,21,test cswl,15,NA,NA,audio/pp1.wav,img/07.jpg,img/11.jpg,img/12.jpg,img/09.jpg,3,0,3.751235995,0.25,224,17,female,undergraduate,psychology,yes,NA,no,NA,NA,yes,NA,yes,English,6,10,NA,NA,NA,NA,NA,NA,NA,NA,NA,yes,NA,yes,NA,PP-,NA
1,brazilian-portuguese,L3_v1,mbrola,lab,270,21,test cswl,16,NA,NA,audio/pp2.wav,img/08.jpg,img/12.jpg,img/11.jpg,img/10.jpg,4,0,5.218169696,0.25,224,17,female,undergraduate,psychology,yes,NA,no,NA,NA,yes,NA,yes,English,6,10,NA,NA,NA,NA,NA,NA,NA,NA,NA,yes,NA,yes,NA,PP-,NA
1,brazilian-portuguese,L3_v1,mbrola,lab,270,21,test cswl,17,NA,NA,audio/p4.wav,img/04.jpg,img/02.jpg,img/06.jpg,img/01.jpg,1,1,3.184803296,0.25,224,17,female,undergraduate,psychology,yes,NA,no,NA,NA,yes,NA,yes,English,6,10,NA,NA,NA,NA,NA,NA,NA,NA,NA,yes,NA,yes,NA,PP+,NA
1,brazilian-portuguese,L3_v1,mbrola,lab,270,21,test cswl,18,NA,NA,audio/pp5.wav,img/11.jpg,img/09.jpg,img/10.jpg,img/08.jpg,2,1,4.584544562,0.25,224,17,female,undergraduate,psychology,yes,NA,no,NA,NA,yes,NA,yes,English,6,10,NA,NA,NA,NA,NA,NA,NA,NA,NA,yes,NA,yes,NA,PP-,NA
1,brazilian-portuguese,L3_v1,mbrola,lab,270,21,test cswl,19,NA,NA,audio/pp5.wav,img/11.jpg,img/07.jpg,img/09.jpg,img/08.jpg,3,1,2.884284355,0.25,224,17,female,undergraduate,psychology,yes,NA,no,NA,NA,yes,NA,yes,English,6,10,NA,NA,NA,NA,NA,NA,NA,NA,NA,yes,NA,yes,NA,PP-,NA
1,brazilian-portuguese,L3_v1,mbrola,lab,270,21,test cswl,20,NA,NA,audio/p4.wav,img/04.jpg,img/01.jpg,img/06.jpg,img/05.jpg,2,1,4.384119466,0.25,224,17,female,undergraduate,psychology,yes,NA,no,NA,NA,yes,NA,yes,English,6,10,NA,NA,NA,NA,NA,NA,NA,NA,NA,yes,NA,yes,NA,PP+,NA
1,brazilian-portuguese,L3_v1,mbrola,lab,270,21,test cswl,21,NA,NA,audio/pp4.wav,img/10.jpg,img/11.jpg,img/12.jpg,img/07.jpg,4,0,7.034930053,0.25,224,17,female,undergraduate,psychology,yes,NA,no,NA,NA,yes,NA,yes,English,6,10,NA,NA,NA,NA,NA,NA,NA,NA,NA,yes,NA,yes,NA,PP-,NA
1,brazilian-portuguese,L3_v1,mbrola,lab,270,21,test cswl,22,NA,NA,audio/p3.wav,img/03.jpg,img/01.jpg,img/05.jpg,img/06.jpg,1,1,1.617432584,0.25,224,17,female,undergraduate,psychology,yes,NA,no,NA,NA,yes,NA,yes,English,6,10,NA,NA,NA,NA,NA,NA,NA,NA,NA,yes,NA,yes,NA,PP+,NA
1,brazilian-portuguese,L3_v1,mbrola,lab,270,21,test cswl,23,NA,NA,audio/pp1.wav,img/07.jpg,img/10.jpg,img/12.jpg,img/09.jpg,4,0,4.683702626,0.25,224,17,female,undergraduate,psychology,yes,NA,no,NA,NA,yes,NA,yes,English,6,10,NA,NA,NA,NA,NA,NA,NA,NA,NA,yes,NA,yes,NA,PP-,NA
1,brazilian-portuguese,L3_v1,mbrola,lab,270,21,test cswl,24,NA,NA,audio/p2.wav,img/02.jpg,img/03.jpg,img/04.jpg,img/05.jpg,2,0,3.60113695,0.25,224,17,female,undergraduate,psychology,yes,NA,no,NA,NA,yes,NA,yes,English,6,10,NA,NA,NA,NA,NA,NA,NA,NA,NA,yes,NA,yes,NA,PP+,NA
1,brazilian-portuguese,L3_v1,mbrola,lab,270,21,test cswl,25,NA,NA,audio/p6.wav,img/06.jpg,img/01.jpg,img/02.jpg,img/03.jpg,2,1,2.034163845,0.25,224,17,female,undergraduate,psychology,yes,NA,no,NA,NA,yes,NA,yes,English,6,10,NA,NA,NA,NA,NA,NA,NA,NA,NA,yes,NA,yes,NA,PP+,NA
1,brazilian-portuguese,L3_v1,mbrola,lab,270,21,test cswl,26,NA,NA,audio/pp3.wav,img/09.jpg,img/12.jpg,img/08.jpg,img/07.jpg,4,1,2.966824148,0.25,224,17,female,undergraduate,psychology,yes,NA,no,NA,NA,yes,NA,yes,English,6,10,NA,NA,NA,NA,NA,NA,NA,NA,NA,yes,NA,yes,NA,PP-,NA
1,brazilian-portuguese,L3_v1,mbrola,lab,270,21,self evaluation cswl,NA,NA,NA,NA,NA,NA,NA,NA,3,NA,5.584835069,NA,224,17,female,undergraduate,psychology,yes,NA,no,NA,NA,yes,NA,yes,English,6,10,NA,NA,NA,NA,NA,NA,NA,NA,NA,yes,NA,yes,NA,NA,NA
1,brazilian-portuguese,L3_v1,mbrola,lab,271,22,warm up cswl,NA,NA,NA,audio/bola.wav,img/bola.jpg,img/casa.jpg,img/pato.jpg,img/gato.jpg,2,1,5.733980482,NA,225,19,female,undergraduate,psychology,yes,NA,no,NA,NA,yes,NA,yes,Spanish,4,11,NA,NA,NA,NA,NA,NA,NA,NA,NA,yes,NA,yes,NA,NA,NA
1,brazilian-portuguese,L3_v1,mbrola,lab,271,22,warm up cswl,NA,NA,NA,audio/pato.wav,img/pato.jpg,img/bola.jpg,img/gato.jpg,img/casa.jpg,4,1,3.584662817,NA,225,19,female,undergraduate,psychology,yes,NA,no,NA,NA,yes,NA,yes,Spanish,4,11,NA,NA,NA,NA,NA,NA,NA,NA,NA,yes,NA,yes,NA,NA,NA
1,brazilian-portuguese,L3_v1,mbrola,lab,271,22,test cswl,3,NA,NA,audio/pp2.wav,img/08.jpg,img/12.jpg,img/11.jpg,img/10.jpg,3,1,13.3361322,0.25,225,19,female,undergraduate,psychology,yes,NA,no,NA,NA,yes,NA,yes,Spanish,4,11,NA,NA,NA,NA,NA,NA,NA,NA,NA,yes,NA,yes,NA,PP-,NA
1,brazilian-portuguese,L3_v1,mbrola,lab,271,22,test cswl,4,NA,NA,audio/pp5.wav,img/11.jpg,img/07.jpg,img/09.jpg,img/08.jpg,3,1,3.650705719,0.25,225,19,female,undergraduate,psychology,yes,NA,no,NA,NA,yes,NA,yes,Spanish,4,11,NA,NA,NA,NA,NA,NA,NA,NA,NA,yes,NA,yes,NA,PP-,NA
1,brazilian-portuguese,L3_v1,mbrola,lab,271,22,test cswl,5,NA,NA,audio/p4.wav,img/04.jpg,img/01.jpg,img/06.jpg,img/05.jpg,2,1,2.451044599,0.25,225,19,female,undergraduate,psychology,yes,NA,no,NA,NA,yes,NA,yes,Spanish,4,11,NA,NA,NA,NA,NA,NA,NA,NA,NA,yes,NA,yes,NA,PP+,NA
1,brazilian-portuguese,L3_v1,mbrola,lab,271,22,test cswl,6,NA,NA,audio/pp4.wav,img/10.jpg,img/08.jpg,img/11.jpg,img/07.jpg,1,1,2.617283984,0.25,225,19,female,undergraduate,psychology,yes,NA,no,NA,NA,yes,NA,yes,Spanish,4,11,NA,NA,NA,NA,NA,NA,NA,NA,NA,yes,NA,yes,NA,PP-,NA
1,brazilian-portuguese,L3_v1,mbrola,lab,271,22,test cswl,7,NA,NA,audio/p5.wav,img/05.jpg,img/01.jpg,img/04.jpg,img/02.jpg,4,1,4.000759514,0.25,225,19,female,undergraduate,psychology,yes,NA,no,NA,NA,yes,NA,yes,Spanish,4,11,NA,NA,NA,NA,NA,NA,NA,NA,NA,yes,NA,yes,NA,PP+,NA
1,brazilian-portuguese,L3_v1,mbrola,lab,271,22,test cswl,8,NA,NA,audio/pp6.wav,img/12.jpg,img/09.jpg,img/10.jpg,img/08.jpg,4,1,6.251495042,0.25,225,19,female,undergraduate,psychology,yes,NA,no,NA,NA,yes,NA,yes,Spanish,4,11,NA,NA,NA,NA,NA,NA,NA,NA,NA,yes,NA,yes,NA,PP-,NA
1,brazilian-portuguese,L3_v1,mbrola,lab,271,22,test cswl,9,NA,NA,audio/pp5.wav,img/11.jpg,img/09.jpg,img/10.jpg,img/08.jpg,2,1,6.184907272,0.25,225,19,female,undergraduate,psychology,yes,NA,no,NA,NA,yes,NA,yes,Spanish,4,11,NA,NA,NA,NA,NA,NA,NA,NA,NA,yes,NA,yes,NA,PP-,NA
1,brazilian-portuguese,L3_v1,mbrola,lab,271,22,test cswl,10,NA,NA,audio/p5.wav,img/05.jpg,img/02.jpg,img/03.jpg,img/04.jpg,2,1,3.80106448,0.25,225,19,female,undergraduate,psychology,yes,NA,no,NA,NA,yes,NA,yes,Spanish,4,11,NA,NA,NA,NA,NA,NA,NA,NA,NA,yes,NA,yes,NA,PP+,NA
1,brazilian-portuguese,L3_v1,mbrola,lab,271,22,test cswl,11,NA,NA,audio/p6.wav,img/06.jpg,img/04.jpg,img/03.jpg,img/02.jpg,2,1,2.500896735,0.25,225,19,female,undergraduate,psychology,yes,NA,no,NA,NA,yes,NA,yes,Spanish,4,11,NA,NA,NA,NA,NA,NA,NA,NA,NA,yes,NA,yes,NA,PP+,NA
1,brazilian-portuguese,L3_v1,mbrola,lab,271,22,test cswl,12,NA,NA,audio/pp3.wav,img/09.jpg,img/12.jpg,img/08.jpg,img/07.jpg,4,1,7.567744668,0.25,225,19,female,undergraduate,psychology,yes,NA,no,NA,NA,yes,NA,yes,Spanish,4,11,NA,NA,NA,NA,NA,NA,NA,NA,NA,yes,NA,yes,NA,PP-,NA
1,brazilian-portuguese,L3_v1,mbrola,lab,271,22,test cswl,13,NA,NA,audio/pp4.wav,img/10.jpg,img/11.jpg,img/12.jpg,img/07.jpg,2,1,3.951134518,0.25,225,19,female,undergraduate,psychology,yes,NA,no,NA,NA,yes,NA,yes,Spanish,4,11,NA,NA,NA,NA,NA,NA,NA,NA,NA,yes,NA,yes,NA,PP-,NA
1,brazilian-portuguese,L3_v1,mbrola,lab,271,22,test cswl,14,NA,NA,audio/p6.wav,img/06.jpg,img/01.jpg,img/02.jpg,img/03.jpg,2,1,2.017607156,0.25,225,19,female,undergraduate,psychology,yes,NA,no,NA,NA,yes,NA,yes,Spanish,4,11,NA,NA,NA,NA,NA,NA,NA,NA,NA,yes,NA,yes,NA,PP+,NA
1,brazilian-portuguese,L3_v1,mbrola,lab,271,22,test cswl,15,NA,NA,audio/p4.wav,img/04.jpg,img/02.jpg,img/06.jpg,img/01.jpg,1,1,2.183364147,0.25,225,19,female,undergraduate,psychology,yes,NA,no,NA,NA,yes,NA,yes,Spanish,4,11,NA,NA,NA,NA,NA,NA,NA,NA,NA,yes,NA,yes,NA,PP+,NA
